PacketCounter,SampleTimeFine,Euler_X,Euler_Y,Euler_Z,Acc_X,Acc_Y,Acc_Z,Gyr_X,Gyr_Y,Gyr_Z,
0, 409889621, 1.1616923809051514, -3.377992630004883, 172.17739868164062, 0, 0, 0, 0, 0, 0, 
1, 409906288, 1.1487782001495361, -3.353793144226074, 172.0685272216797, 0.5761128067970276, 0.11982697993516922, 9.798720359802246, 0.5218139290809631, 0.9750818610191345, 1.3768681287765503, 
2, 409922955, 1.0673068761825562, -3.3289830684661865, 172.13377380371094, 0.5440450310707092, 0.09574668854475021, 9.835528373718262, 0.5794680714607239, 1.3537014722824097, 1.271920084953308, 
3, 409939622, 0.9664338827133179, -3.2730767726898193, 172.14633178710938, 0.5342444181442261, 0.1143854558467865, 9.914470672607422, 0.4473065733909607, 1.865161657333374, 0.8283594846725464, 
4, 409956289, 0.8942962884902954, -3.218156337738037, 172.19985961914062, 0.5303180813789368, 0.15942507982254028, 10.000750541687012, 0.3526804745197296, 1.4685490131378174, 0.7710383534431458, 
5, 409972956, 0.8648405075073242, -3.1713755130767822, 172.2616729736328, 0.5167387127876282, 0.17867493629455566, 10.007299423217773, 0.38855108618736267, 1.1176421642303467, 0.49906986951828003, 
6, 409989623, 0.8592084646224976, -3.130695343017578, 172.2709197998047, 0.5264737606048584, 0.18702223896980286, 9.987322807312012, 0.34955570101737976, 0.8817108273506165, 0.6901149749755859, 
7, 410006290, 0.8547183275222778, -3.0941860675811768, 172.28018188476562, 0.5182437896728516, 0.1869075447320938, 9.981966972351074, -0.3638284206390381, 1.0317115783691406, 0.4302613139152527, 
8, 410022957, 0.8593664169311523, -3.067390203475952, 172.25576782226562, 0.5304731130599976, 0.19823989272117615, 10.014117240905762, -0.1429060399532318, 0.6813937425613403, 0.32984670996665955, 
9, 410039624, 0.8672807216644287, -3.0545663833618164, 172.2989501953125, 0.5414842963218689, 0.23434528708457947, 9.995013236999512, -0.15532821416854858, 0.11674907803535461, 0.42921119928359985, 
10, 410056291, 0.8806004524230957, -3.0470683574676514, 172.30474853515625, 0.517366349697113, 0.17984746396541595, 9.937339782714844, -0.11232449114322662, 0.0659462958574295, 0.693188488483429, 
11, 410072958, 0.8976657390594482, -3.040208339691162, 172.30909729003906, 0.5236390233039856, 0.16656900942325592, 9.914494514465332, 0.25275254249572754, 0.08250491321086884, 0.4601001739501953, 
12, 410089625, 0.9109172821044922, -3.036958694458008, 172.28041076660156, 0.5546731352806091, 0.17899999022483826, 9.885273933410645, 0.19594356417655945, -0.051801685243844986, 0.46989700198173523, 
13, 410106292, 0.9209874272346497, -3.0337188243865967, 172.24278259277344, 0.5474708676338196, 0.1502007097005844, 9.866037368774414, 0.1049032062292099, 0.12712222337722778, 0.7475641965866089, 
14, 410122959, 0.9360514879226685, -3.0298397541046143, 172.2113494873047, 0.5295969843864441, 0.10466843843460083, 9.859624862670898, 0.5504617094993591, 0.25490397214889526, 0.5547006130218506, 
15, 410139626, 0.9455028772354126, -3.017317056655884, 172.20835876464844, 0.52907395362854, 0.15016713738441467, 9.823997497558594, 0.4266243278980255, 0.782781720161438, 0.17398066818714142, 
16, 410156293, 0.9411067962646484, -2.996640682220459, 172.20985412597656, 0.5609428286552429, 0.15722136199474335, 9.904759407043457, -0.36039629578590393, 1.2841119766235352, -0.12173717468976974, 
17, 410172960, 0.9437901973724365, -2.981105089187622, 172.21142578125, 0.5676875710487366, 0.22366760671138763, 9.997442245483398, 0.09721940010786057, 1.0480395555496216, -0.07740157097578049, 
18, 410189627, 0.9638820886611938, -2.977529764175415, 172.2233428955078, 0.570708692073822, 0.23797012865543365, 9.988349914550781, 1.0760408639907837, 0.39894339442253113, 0.461617648601532, 
19, 410206294, 0.9911597967147827, -2.979480504989624, 172.2375946044922, 0.5711929202079773, 0.24034680426120758, 9.909581184387207, 1.4530084133148193, 0.12399107962846756, 1.0485455989837646, 
20, 410222961, 1.0079538822174072, -2.9649345874786377, 172.2596435546875, 0.5440847277641296, 0.1940167248249054, 9.84823989868164, 0.7729911804199219, 1.1566567420959473, 1.2110580205917358, 
21, 410239628, 1.0223090648651123, -2.943669319152832, 172.28736877441406, 0.5314069986343384, 0.16045846045017242, 9.912537574768066, 0.6524900197982788, 1.558616042137146, 1.2661446332931519, 
22, 410256295, 1.0436598062515259, -2.92423677444458, 172.2673797607422, 0.5048260688781738, 0.1227048933506012, 9.93468952178955, 1.1206772327423096, 1.4268900156021118, 1.0460803508758545, 
23, 410272962, 1.0747448205947876, -2.9128997325897217, 172.25448608398438, 0.5032588839530945, 0.1542482227087021, 9.976856231689453, 1.779064655303955, 0.8936207890510559, 0.719774603843689, 
24, 410289629, 1.1255651712417603, -2.905719757080078, 172.24107360839844, 0.4868507385253906, 0.15735343098640442, 9.888895988464355, 3.006194829940796, 0.6098833084106445, 0.6759512424468994, 
25, 410306296, 1.169385552406311, -2.885190963745117, 172.22215270996094, 0.5176190137863159, 0.18936371803283691, 9.827655792236328, 2.6209540367126465, 1.3730263710021973, 0.5775215029716492, 
26, 410322963, 1.2035207748413086, -2.8560304641723633, 172.23011779785156, 0.5090842247009277, 0.21839329600334167, 9.8651762008667, 2.0612781047821045, 1.8947829008102417, 0.7795673608779907, 
27, 410339630, 1.235840916633606, -2.826510429382324, 172.24005126953125, 0.5342040061950684, 0.19483524560928345, 9.960896492004395, 1.934187889099121, 1.9060652256011963, 0.5578253865242004, 
28, 410356297, 1.243443489074707, -2.7985994815826416, 172.24160766601562, 0.5020855665206909, 0.18048939108848572, 10.010453224182129, 0.4430292248725891, 1.811016321182251, 0.08482285588979721, 
29, 410372964, 1.245460867881775, -2.777147054672241, 172.2142333984375, 0.4574928283691406, 0.19525732100009918, 9.993786811828613, 0.11300964653491974, 1.4051448106765747, -0.32502517104148865, 
30, 410389631, 1.2657692432403564, -2.754957437515259, 172.183349609375, 0.46252456307411194, 0.18366003036499023, 9.980408668518066, 1.2128698825836182, 1.414313793182373, -0.505876362323761, 
31, 410406298, 1.3109098672866821, -2.7346444129943848, 172.16305541992188, 0.455886572599411, 0.1765470653772354, 9.997014999389648, 2.701045036315918, 1.2707549333572388, -0.9360289573669434, 
32, 410422965, 1.3443626165390015, -2.722625970840454, 172.1284637451172, 0.5090462565422058, 0.20239344239234924, 9.969918251037598, 1.9952869415283203, 0.7398291826248169, -1.455236792564392, 
33, 410439632, 1.3498125076293945, -2.7531909942626953, 172.0773162841797, 0.5508292317390442, 0.13188065588474274, 10.029291152954102, 0.22073668241500854, -1.8533351421356201, -3.5277786254882812, 
34, 410456299, 1.3582682609558105, -2.825756072998047, 171.9572296142578, 0.4465208351612091, 0.27596867084503174, 9.940719604492188, 0.27809634804725647, -4.425619125366211, -6.7632904052734375, 
35, 410472966, 1.3968108892440796, -2.8986454010009766, 171.87330627441406, 0.46693193912506104, 0.17695732414722443, 9.9583158493042, 2.137066602706909, -4.428117275238037, -4.957518577575684, 
36, 410489633, 1.4415251016616821, -3.0528366565704346, 171.67080688476562, 0.4698594808578491, -0.12431805580854416, 10.055999755859375, 2.1797895431518555, -9.486271858215332, -11.272579193115234, 
37, 410506300, 1.6897144317626953, -3.2690975666046143, 171.301513671875, 0.32674479484558105, 0.20229211449623108, 10.015380859375, 13.911942481994629, -13.545249938964844, -21.52525520324707, 
38, 410522967, 2.1102912425994873, -3.4738032817840576, 171.06459045410156, 0.7195383310317993, 0.5378092527389526, 9.902873039245605, 24.50579833984375, -12.876818656921387, -15.93936538696289, 
39, 410539634, 2.2908992767333984, -3.6723856925964355, 170.9013671875, 0.6494425535202026, 0.4396437108516693, 9.71348762512207, 10.29996109008789, -12.332632064819336, -10.439813613891602, 
40, 410556301, 2.4423916339874268, -3.787755250930786, 170.8389892578125, 0.6418712735176086, 0.29652857780456543, 9.8705472946167, 8.736837387084961, -7.205253601074219, -6.828350067138672, 
41, 410572968, 2.496258497238159, -3.867225408554077, 170.80213928222656, 0.6264916658401489, 0.36802026629447937, 9.765230178833008, 2.9440457820892334, -5.032358169555664, -6.1326799392700195, 
42, 410589635, 2.4914283752441406, -3.945128917694092, 170.7786865234375, 0.7955138683319092, 0.5737962126731873, 10.083932876586914, -0.3832300305366516, -4.822679042816162, -3.239776372909546, 
43, 410606302, 2.6004490852355957, -4.031886100769043, 170.86602783203125, 0.8035021424293518, 0.7445535063743591, 9.921258926391602, 6.819493293762207, -5.056845188140869, 2.8652617931365967, 
44, 410622969, 2.6663951873779297, -4.147675514221191, 170.93215942382812, 0.6408601403236389, 0.44318851828575134, 9.932456970214844, 4.149533271789551, -6.76530122756958, 2.930086612701416, 
45, 410639636, 2.7186055183410645, -4.256345272064209, 171.08433532714844, 0.6976671814918518, 0.27082914113998413, 9.835749626159668, 3.2506682872772217, -6.413049697875977, 1.7919223308563232, 
46, 410656303, 2.716114044189453, -4.269015789031982, 171.20822143554688, 0.7676116824150085, 0.3816283047199249, 9.47053337097168, -0.010975041426718235, -0.6837565898895264, 1.1327663660049438, 
47, 410672970, 2.6502623558044434, -4.2344651222229, 171.24432373046875, 0.7934992909431458, 0.370879203081131, 10.017444610595703, -3.8792998790740967, 2.1125290393829346, -0.09784051775932312, 
48, 410689637, 2.598595380783081, -4.232773780822754, 171.32742309570312, 0.8510721325874329, 0.6705818772315979, 9.94843864440918, -2.8830037117004395, 0.2301493138074875, 1.712010383605957, 
49, 410706304, 2.5493216514587402, -4.2296576499938965, 171.41676330566406, 0.82428377866745, 0.6433992385864258, 9.994013786315918, -2.673043966293335, 0.4084649682044983, 3.276587963104248, 
50, 410722971, 2.5404746532440186, -4.2528862953186035, 171.5022735595703, 0.7709247469902039, 0.4807780086994171, 9.99406623840332, -0.20833373069763184, -1.1099905967712402, 4.441390037536621, 
51, 410739638, 2.5288283824920654, -4.266136169433594, 171.5712432861328, 0.7147092819213867, 0.23237957060337067, 9.75633430480957, -0.5482398867607117, -0.6109909415245056, 2.194733142852783, 
52, 410756305, 2.4594812393188477, -4.270113468170166, 171.58157348632812, 0.6932212114334106, 0.25266724824905396, 9.889823913574219, -4.238863468170166, -0.22117845714092255, -1.4369876384735107, 
53, 410772972, 2.452563762664795, -4.291589736938477, 171.59396362304688, 0.7145485281944275, 0.4215202331542969, 9.895859718322754, -0.43670937418937683, -1.2683666944503784, -1.0663080215454102, 
54, 410789639, 2.4155526161193848, -4.285279750823975, 171.60205078125, 0.7518376111984253, 0.3357238471508026, 9.752676010131836, -2.1894118785858154, 0.42210373282432556, -0.41212114691734314, 
55, 410806306, 2.3332760334014893, -4.269948482513428, 171.59324645996094, 0.615064799785614, 0.2316291183233261, 9.953069686889648, -5.047674655914307, 0.8767547607421875, -2.473508358001709, 
56, 410822973, 2.2311737537384033, -4.250749588012695, 171.5536651611328, 0.6856544613838196, 0.2607782781124115, 9.861482620239258, -6.331960201263428, 1.022337555885315, -4.112030029296875, 
57, 410839640, 2.1050171852111816, -4.229288101196289, 171.50437927246094, 0.662787139415741, 0.39138275384902954, 10.006816864013672, -7.786904335021973, 1.1411421298980713, -4.543015480041504, 
58, 410856307, 2.012089967727661, -4.202914237976074, 171.4769744873047, 0.7184651494026184, 0.3891722857952118, 10.04859733581543, -5.713374137878418, 1.4719812870025635, -3.390827178955078, 
59, 410872974, 1.9860444068908691, -4.176617622375488, 171.4710693359375, 0.7117552161216736, 0.39558619260787964, 9.999589920043945, -1.6481130123138428, 1.4940334558486938, -2.571028470993042, 
60, 410889641, 1.9521714448928833, -4.149332046508789, 171.45118713378906, 0.7132298946380615, 0.40738627314567566, 9.953930854797363, -2.1192588806152344, 1.5562981367111206, -2.471740961074829, 
61, 410906308, 1.9224390983581543, -4.1181254386901855, 171.42393493652344, 0.791212260723114, 0.42724552750587463, 10.037019729614258, -1.8980547189712524, 1.7839566469192505, -2.6837244033813477, 
62, 410922975, 1.9156670570373535, -4.088901996612549, 171.40965270996094, 0.773529052734375, 0.4432043731212616, 10.032848358154297, -0.48780667781829834, 1.6971678733825684, -2.0383355617523193, 
63, 410939642, 1.912844181060791, -4.049951553344727, 171.41726684570312, 0.7608340382575989, 0.40250661969184875, 10.002964973449707, -0.1819526106119156, 2.3278422355651855, -0.8450014591217041, 
64, 410956309, 1.9094455242156982, -3.9942843914031982, 171.41506958007812, 0.7023147940635681, 0.26588860154151917, 9.868316650390625, -0.29750433564186096, 3.302635908126831, -1.8531174659729004, 
65, 410972976, 1.8990113735198975, -3.9143972396850586, 171.3723907470703, 0.7061792016029358, 0.25848615169525146, 9.793081283569336, -0.8217708468437195, 4.701218605041504, -3.5529942512512207, 
66, 410989643, 1.9164522886276245, -3.8202459812164307, 171.3296356201172, 0.7328889966011047, 0.40745338797569275, 9.830578804016113, 0.8827610015869141, 5.569591045379639, -3.3246185779571533, 
67, 411006310, 1.9847890138626099, -3.7434961795806885, 171.32278442382812, 0.7445700764656067, 0.4618734121322632, 9.958490371704102, 4.058697700500488, 4.597960472106934, -1.3210391998291016, 
68, 411022977, 2.055738687515259, -3.708855152130127, 171.31971740722656, 0.7379452586174011, 0.4072311520576477, 9.9094877243042, 4.282155990600586, 2.126744508743286, 0.04083304852247238, 
69, 411039644, 2.1099061965942383, -3.686306953430176, 171.32398986816406, 0.7162265181541443, 0.4116910398006439, 9.879465103149414, 3.2625646591186523, 1.4075394868850708, -0.038956914097070694, 
70, 411056311, 2.154871702194214, -3.6638996601104736, 171.334228515625, 0.7020899653434753, 0.4552411139011383, 9.865933418273926, 2.7583019733428955, 1.4398115873336792, 0.823467493057251, 
71, 411072978, 2.174428939819336, -3.6305136680603027, 171.3357391357422, 0.6730910539627075, 0.37152042984962463, 9.816808700561523, 1.223973274230957, 2.1038076877593994, 0.7873663306236267, 
72, 411089645, 2.1760504245758057, -3.5870091915130615, 171.31610107421875, 0.6883323788642883, 0.39636337757110596, 9.846768379211426, 0.1245993822813034, 2.701889991760254, 0.3997182250022888, 
73, 411106312, 2.166638135910034, -3.5446579456329346, 171.31698608398438, 0.6866685152053833, 0.3855764865875244, 9.879555702209473, -0.5392369627952576, 2.637115716934204, 0.4328610599040985, 
74, 411122979, 2.157515048980713, -3.4932003021240234, 171.30889892578125, 0.659429669380188, 0.3613162636756897, 9.827649116516113, -0.5574987530708313, 3.1687071323394775, -0.12925447523593903, 
75, 411139646, 2.197709083557129, -3.3910746574401855, 171.2978057861328, 0.5703262090682983, 0.39628303050994873, 9.71723747253418, 2.3423776626586914, 6.172091007232666, -1.2725287675857544, 
76, 411156313, 2.2932233810424805, -3.230043888092041, 171.273193359375, 0.5911625027656555, 0.3978198170661926, 9.793320655822754, 5.654691696166992, 9.694148063659668, -1.502441644668579, 
77, 411172980, 2.4111337661743164, -3.0742313861846924, 171.25433349609375, 0.5783529877662659, 0.31725314259529114, 9.859784126281738, 7.0375590324401855, 9.407849311828613, -0.8379582166671753, 
78, 411189647, 2.4796175956726074, -2.9430196285247803, 171.20355224609375, 0.58476722240448, 0.27056828141212463, 9.982419967651367, 4.045212745666504, 7.9071855545043945, -1.4828858375549316, 
79, 411206314, 2.5241148471832275, -2.849689245223999, 171.15255737304688, 0.5652320981025696, 0.2986200153827667, 10.046894073486328, 2.6100690364837646, 5.627861022949219, -1.656258463859558, 
80, 411222981, 2.550356149673462, -2.7754831314086914, 171.11460876464844, 0.519278347492218, 0.3490273356437683, 9.982898712158203, 1.5471928119659424, 4.498992919921875, -1.2500534057617188, 
81, 411239648, 2.551133871078491, -2.7090113162994385, 171.04000854492188, 0.5041569471359253, 0.41305914521217346, 10.089803695678711, 0.015258767642080784, 4.025785446166992, -1.4978692531585693, 
82, 411256315, 2.5627403259277344, -2.676682710647583, 171.00054931640625, 0.5157496929168701, 0.4428999423980713, 10.104280471801758, 0.7047142386436462, 2.0129599571228027, -0.6273703575134277, 
83, 411272982, 2.577033519744873, -2.660553216934204, 170.95811462402344, 0.47859257459640503, 0.3379146456718445, 9.991682052612305, 0.8672396540641785, 1.0468358993530273, -0.5319117903709412, 
84, 411289649, 2.6098973751068115, -2.6286449432373047, 170.88511657714844, 0.4988287687301636, 0.41381990909576416, 9.827824592590332, 1.9295260906219482, 1.9312803745269775, -1.9049572944641113, 
85, 411306316, 2.6282243728637695, -2.5710349082946777, 170.8240966796875, 0.5283301472663879, 0.4642515480518341, 9.79416561126709, 1.0857609510421753, 3.502153158187866, -1.3819526433944702, 
86, 411322983, 2.6133720874786377, -2.504953384399414, 170.76194763183594, 0.5351728796958923, 0.48328500986099243, 9.879597663879395, -0.8950614333152771, 4.02912712097168, -1.1271637678146362, 
87, 411339650, 2.6123850345611572, -2.463233709335327, 170.71864318847656, 0.5289039611816406, 0.4133158326148987, 10.064472198486328, -0.034602757543325424, 2.60038685798645, -0.4182169437408447, 
88, 411356317, 2.6393728256225586, -2.446913480758667, 170.69757080078125, 0.5348421335220337, 0.4453306198120117, 9.964118003845215, 1.662917137145996, 1.1027932167053223, 0.04433558136224747, 
89, 411372984, 2.652235984802246, -2.4403679370880127, 170.67843627929688, 0.5104516744613647, 0.5043239593505859, 9.894365310668945, 0.8225966095924377, 0.5223774313926697, 0.12089833617210388, 
90, 411389651, 2.6709368228912354, -2.419165849685669, 170.653564453125, 0.49186673760414124, 0.4811165928840637, 9.795049667358398, 1.192764163017273, 1.452592134475708, 0.8909313082695007, 
91, 411406318, 2.658313751220703, -2.391630172729492, 170.6200714111328, 0.4837668538093567, 0.4190807044506073, 9.909733772277832, -0.7096254229545593, 1.823073387145996, 0.5266995429992676, 
92, 411422985, 2.669654607772827, -2.3686599731445312, 170.5968780517578, 0.4564163088798523, 0.453544557094574, 9.95163345336914, 0.7220668792724609, 1.5315947532653809, 0.17924410104751587, 
93, 411439652, 2.6956491470336914, -2.348360061645508, 170.56369018554688, 0.46998730301856995, 0.44371113181114197, 9.895559310913086, 1.60085129737854, 1.3643437623977661, 0.08021257817745209, 
94, 411456319, 2.7155888080596924, -2.3184263706207275, 170.55616760253906, 0.44791942834854126, 0.42442479729652405, 9.860318183898926, 1.2487280368804932, 1.9399378299713135, 0.10229071974754333, 
95, 411472986, 2.7076072692871094, -2.275890350341797, 170.51002502441406, 0.4868040084838867, 0.4175738990306854, 9.916521072387695, -0.45118048787117004, 2.697190284729004, -0.20761653780937195, 
96, 411489653, 2.6876463890075684, -2.2429966926574707, 170.4625701904297, 0.494819313287735, 0.4518989324569702, 10.048029899597168, -1.1732409000396729, 2.1071505546569824, -0.46127188205718994, 
97, 411506320, 2.6699464321136475, -2.2226200103759766, 170.42791748046875, 0.4925670921802521, 0.4631774425506592, 10.009574890136719, -1.019808053970337, 1.3711438179016113, -0.16673868894577026, 
98, 411522987, 2.5952348709106445, -2.1963768005371094, 170.35337829589844, 0.5138443112373352, 0.47300124168395996, 9.756386756896973, -4.471951484680176, 1.7090904712677002, -0.7357503175735474, 
99, 411539654, 2.4775021076202393, -2.153789520263672, 170.31600952148438, 0.4218766987323761, 0.38578614592552185, 10.149847984313965, -7.06479024887085, 2.6792871952056885, -1.16403329372406, 
100, 411556321, 2.4965429306030273, -2.1399688720703125, 170.2984161376953, 0.4806697964668274, 0.5369208455085754, 10.02558708190918, 1.2084392309188843, 1.0193662643432617, 0.4431445598602295, 
101, 411572988, 2.5116822719573975, -2.1524651050567627, 170.2884521484375, 0.4563818573951721, 0.506817638874054, 9.979150772094727, 0.9901294112205505, -0.5193487405776978, 1.2333091497421265, 
102, 411589655, 2.550445556640625, -2.167234420776367, 170.30906677246094, 0.4383648931980133, 0.39940857887268066, 9.8523530960083, 2.4390077590942383, -0.6351437568664551, 1.8048245906829834, 
103, 411606322, 2.5559279918670654, -2.163383722305298, 170.2826385498047, 0.44077202677726746, 0.3401981294155121, 9.791690826416016, 0.3947044909000397, 0.4604010581970215, 0.967135488986969, 
104, 411622989, 2.546759843826294, -2.14159893989563, 170.2473907470703, 0.39463022351264954, 0.321350634098053, 9.890406608581543, -0.4873585104942322, 1.5209397077560425, 0.5697737336158752, 
105, 411639656, 2.541720151901245, -2.126150131225586, 170.2421875, 0.3580028712749481, 0.29586178064346313, 9.967543601989746, -0.22220298647880554, 1.1210038661956787, 0.366504967212677, 
106, 411656323, 2.533327579498291, -2.1098451614379883, 170.2314910888672, 0.35135775804519653, 0.31956252455711365, 9.966931343078613, -0.4285324513912201, 1.1491392850875854, -0.10655523836612701, 
107, 411672990, 2.5154411792755127, -2.1002697944641113, 170.2101287841797, 0.40980806946754456, 0.41729846596717834, 10.060900688171387, -0.9992153644561768, 0.7365507483482361, -0.24187351763248444, 
108, 411689657, 2.5429751873016357, -2.1100521087646484, 170.16880798339844, 0.41678306460380554, 0.431814968585968, 10.024951934814453, 1.7175365686416626, -0.41167932748794556, -0.06758551299571991, 
109, 411706324, 2.5736043453216553, -2.123873710632324, 170.1374969482422, 0.4341813027858734, 0.4377557635307312, 9.830755233764648, 1.9178341627120972, -0.637231171131134, 0.3016599416732788, 
110, 411722991, 2.575840711593628, -2.1133816242218018, 170.10939025878906, 0.4204983711242676, 0.3820948302745819, 9.80185604095459, 0.21313606202602386, 0.8174805045127869, 0.14043442904949188, 
111, 411739658, 2.570871591567993, -2.0875813961029053, 170.08786010742188, 0.4353428781032562, 0.3993249237537384, 9.881521224975586, -0.22271522879600525, 1.7065677642822266, -0.4818645119667053, 
112, 411756325, 2.5757198333740234, -2.0698022842407227, 170.07647705078125, 0.44332435727119446, 0.3794679641723633, 9.938425064086914, 0.38120660185813904, 1.2387709617614746, -0.20724515616893768, 
113, 411772992, 2.5709335803985596, -2.0587782859802246, 170.05023193359375, 0.477186918258667, 0.41569244861602783, 9.971366882324219, -0.21326416730880737, 0.824248731136322, -0.5601882338523865, 
114, 411789659, 2.5474069118499756, -2.0509960651397705, 170.0119171142578, 0.5130453109741211, 0.45925337076187134, 9.902386665344238, -1.3446794748306274, 0.6366868615150452, -0.6074948310852051, 
115, 411806326, 2.5453407764434814, -2.0491392612457275, 169.99349975585938, 0.4785322844982147, 0.5400466322898865, 9.905854225158691, -0.026957368478178978, 0.32241904735565186, 0.16071327030658722, 
116, 411822993, 2.567385196685791, -2.047027349472046, 169.99261474609375, 0.48974233865737915, 0.4848138689994812, 9.827098846435547, 1.4428337812423706, 0.38095688819885254, 0.9925752878189087, 
117, 411839660, 2.5666663646698, -2.0324859619140625, 170.00787353515625, 0.45043304562568665, 0.4044581353664398, 9.824956893920898, 0.08851107954978943, 1.134623408317566, 1.0503959655761719, 
118, 411856327, 2.5447428226470947, -2.008261203765869, 170.02125549316406, 0.4574342966079712, 0.3860384523868561, 9.936772346496582, -1.1809120178222656, 1.7184264659881592, 0.9990426301956177, 
119, 411872994, 2.526597023010254, -1.993672251701355, 170.00885009765625, 0.4104425311088562, 0.39605066180229187, 9.995257377624512, -0.9854615330696106, 1.1294432878494263, 0.5497509837150574, 
120, 411889661, 2.523548126220703, -1.9861353635787964, 170.00711059570312, 0.3854294419288635, 0.388268381357193, 9.95565128326416, -0.06198912858963013, 0.7323311567306519, 1.066179871559143, 
121, 411906328, 2.5066044330596924, -1.9765976667404175, 169.9918670654297, 0.3869076669216156, 0.34903162717819214, 9.967911720275879, -0.9086489677429199, 0.831042468547821, 0.5818180441856384, 
122, 411922995, 2.4814088344573975, -1.9694688320159912, 169.98304748535156, 0.37538573145866394, 0.30390140414237976, 10.010281562805176, -1.398555874824524, 0.676482617855072, 0.38714879751205444, 
123, 411939662, 2.471402168273926, -1.9660685062408447, 169.985595703125, 0.3762742280960083, 0.35557156801223755, 9.989716529846191, -0.47905993461608887, 0.4296274185180664, -0.056744933128356934, 
124, 411956329, 2.4591288566589355, -1.9658212661743164, 169.9779052734375, 0.40884271264076233, 0.39952319860458374, 9.939935684204102, -0.6151401400566101, 0.2484239637851715, 0.07936734706163406, 
125, 411972996, 2.426225185394287, -1.9621466398239136, 169.96046447753906, 0.3936520218849182, 0.36584150791168213, 9.972687721252441, -1.8621329069137573, 0.4555923044681549, -0.013894888572394848, 
126, 411989663, 2.4085164070129395, -1.9566302299499512, 169.92881774902344, 0.39791518449783325, 0.3923654556274414, 9.89526653289795, -0.9681088924407959, 0.5483359694480896, -0.49127721786499023, 
127, 412006330, 2.393885612487793, -1.943715214729309, 169.89271545410156, 0.4275156259536743, 0.44757941365242004, 9.88831615447998, -0.790279746055603, 0.9947779178619385, -0.5171459913253784, 
128, 412022997, 2.3654539585113525, -1.9242159128189087, 169.86819458007812, 0.4088429808616638, 0.44847777485847473, 9.89638614654541, -1.6040722131729126, 1.4041202068328857, -0.2669355571269989, 
129, 412039664, 2.3266994953155518, -1.9089497327804565, 169.83489990234375, 0.4198318421840668, 0.4612346589565277, 9.970030784606934, -2.2325053215026855, 1.156663179397583, -0.2191934734582901, 
130, 412056331, 2.2946431636810303, -1.9034781455993652, 169.8285369873047, 0.447435200214386, 0.4634433090686798, 9.931593894958496, -1.8005343675613403, 0.5924921035766602, 0.33689022064208984, 
131, 412072998, 2.258383274078369, -1.89653742313385, 169.8309326171875, 0.42117950320243835, 0.42585206031799316, 9.848695755004883, -2.0454301834106445, 0.6979396939277649, 0.6546413898468018, 
132, 412089665, 2.227402448654175, -1.8840718269348145, 169.83023071289062, 0.42710205912590027, 0.40284639596939087, 9.866141319274902, -1.724567174911499, 1.0549488067626953, 1.1398420333862305, 
133, 412106332, 2.129669666290283, -1.860703468322754, 169.8256378173828, 0.4011755585670471, 0.30365851521492004, 9.825979232788086, -5.737616539001465, 1.7125613689422607, 1.0959867238998413, 
134, 412122999, 2.094738721847534, -1.8441203832626343, 169.83030700683594, 0.37925833463668823, 0.2240525186061859, 9.941963195800781, -1.951879858970642, 1.3147448301315308, 1.3204692602157593, 
135, 412139666, 2.029637098312378, -1.8212900161743164, 169.8074493408203, 0.36598390340805054, 0.17374972999095917, 9.876958847045898, -3.804382085800171, 1.6355500221252441, -0.21973133087158203, 
136, 412156333, 1.9733043909072876, -1.786506175994873, 169.79696655273438, 0.35031792521476746, 0.2731214165687561, 9.926252365112305, -3.2606892585754395, 2.3442094326019287, -0.4915718138217926, 
137, 412173000, 1.9233225584030151, -1.7495167255401611, 169.76133728027344, 0.35428452491760254, 0.3056815266609192, 9.958340644836426, -2.908975601196289, 2.4598119258880615, -1.0648994445800781, 
138, 412189667, 1.885378122329712, -1.7200769186019897, 169.72244262695312, 0.3780791461467743, 0.3229874074459076, 10.095735549926758, -2.173020124435425, 2.025317907333374, -0.5329747200012207, 
139, 412206334, 1.845770239830017, -1.7106748819351196, 169.67034912109375, 0.38032975792884827, 0.2895236611366272, 10.114166259765625, -2.2791590690612793, 0.8288590312004089, -0.41490012407302856, 
140, 412223001, 1.7995542287826538, -1.7106431722640991, 169.64698791503906, 0.37486183643341064, 0.28862497210502625, 10.018033981323242, -2.6519389152526855, 0.27801942825317383, -0.20591330528259277, 
141, 412239668, 1.7434508800506592, -1.706556797027588, 169.6203155517578, 0.3959318995475769, 0.26527780294418335, 9.990835189819336, -3.2461278438568115, 0.5311112999916077, 0.047902148216962814, 
142, 412256335, 1.7068226337432861, -1.7120468616485596, 169.60601806640625, 0.33847081661224365, 0.2237778902053833, 10.020977020263672, -2.0632948875427246, -0.032643381506204605, 0.23726962506771088, 
143, 412273002, 1.6992156505584717, -1.7291204929351807, 169.59596252441406, 0.34597769379615784, 0.1896863728761673, 9.950157165527344, -0.30584126710891724, -0.7187052369117737, 0.4843682050704956, 
144, 412289669, 1.6995807886123657, -1.7447689771652222, 169.56382751464844, 0.3512085974216461, 0.16508130729198456, 9.838890075683594, 0.14739468693733215, -0.6514589786529541, -0.007786260452121496, 
145, 412306336, 1.6704939603805542, -1.7489453554153442, 169.51937866210938, 0.377481073141098, 0.19094273447990417, 9.792472839355469, -1.6401989459991455, 0.015924694016575813, -0.7475322484970093, 
146, 412323003, 1.6441367864608765, -1.7420876026153564, 169.48291015625, 0.394214928150177, 0.2821449935436249, 9.849526405334473, -1.4527523517608643, 0.6859017014503479, -0.729846715927124, 
147, 412339670, 1.612862229347229, -1.7336037158966064, 169.4635772705078, 0.41083428263664246, 0.2848426401615143, 9.90978717803955, -1.7245796918869019, 0.8055193424224854, -0.20433807373046875, 
148, 412356337, 1.5733486413955688, -1.732783317565918, 169.44064331054688, 0.3869352638721466, 0.20964203774929047, 9.95508861541748, -2.2246103286743164, 0.3481278419494629, -0.28262972831726074, 
149, 412373004, 1.534610390663147, -1.7310161590576172, 169.4269256591797, 0.3987686038017273, 0.2337285578250885, 9.952553749084473, -2.1671864986419678, 0.4120059013366699, -0.28791874647140503, 
150, 412389671, 1.4765578508377075, -1.73628830909729, 169.39820861816406, 0.4039113521575928, 0.2731940746307373, 9.965222358703613, -3.3394479751586914, -0.010014564730226994, -0.179404154419899, 
151, 412406338, 1.4173815250396729, -1.7650600671768188, 169.3948974609375, 0.4232602119445801, 0.2778223156929016, 10.080275535583496, -3.375715494155884, -1.393638253211975, 0.3834925889968872, 
152, 412423005, 1.3581454753875732, -1.8015204668045044, 169.4198455810547, 0.43541720509529114, 0.3706671893596649, 9.984355926513672, -3.32194185256958, -1.8009699583053589, 2.5275957584381104, 
153, 412439672, 1.31956946849823, -1.8327000141143799, 169.43406677246094, 0.38096514344215393, 0.15571743249893188, 9.98259162902832, -2.1141746044158936, -1.4987528324127197, 1.6274757385253906, 
154, 412456339, 1.2762991189956665, -1.8575316667556763, 169.4291534423828, 0.4115923047065735, 0.20494027435779572, 9.853754997253418, -2.4529285430908203, -1.1606395244598389, -0.5242279171943665, 
155, 412473006, 1.2384908199310303, -1.8619331121444702, 169.41163635253906, 0.402944415807724, 0.24355855584144592, 9.78908920288086, -2.131744861602783, 0.06494741141796112, -0.5489826798439026, 
156, 412489673, 1.2084611654281616, -1.8487203121185303, 169.39022827148438, 0.45644858479499817, 0.2547687292098999, 9.920853614807129, -1.657666563987732, 1.1320875883102417, 0.16309526562690735, 
157, 412506340, 1.1960749626159668, -1.8503923416137695, 169.3860321044922, 0.40502768754959106, 0.16805799305438995, 9.964984893798828, -0.572763979434967, 0.26358669996261597, 0.9261232018470764, 
158, 412523007, 1.1920161247253418, -1.8615416288375854, 169.39332580566406, 0.37793561816215515, 0.11881774663925171, 9.969069480895996, -0.060753319412469864, -0.2931245267391205, 1.1091899871826172, 
159, 412539674, 1.1924283504486084, -1.8800358772277832, 169.385986328125, 0.36929571628570557, 0.1119159460067749, 9.918380737304688, 0.19518797099590302, -0.7457265257835388, 0.8225454688072205, 
160, 412556341, 1.180155873298645, -1.884079098701477, 169.38629150390625, 0.37009096145629883, 0.0839836522936821, 9.822336196899414, -0.5587922930717468, 0.12517568469047546, 0.6071426868438721, 
161, 412573008, 1.1312928199768066, -1.8697105646133423, 169.37167358398438, 0.3493780195713043, 0.10586345195770264, 9.931678771972656, -2.778632402420044, 1.211948275566101, -0.4080359935760498, 
162, 412589675, 1.0963407754898071, -1.855762243270874, 169.34832763671875, 0.36468663811683655, 0.183468759059906, 10.029099464416504, -1.9443753957748413, 1.1786004304885864, -0.304765522480011, 
163, 412606342, 1.0729247331619263, -1.854598045349121, 169.3137664794922, 0.36145031452178955, 0.15755292773246765, 10.027477264404297, -1.2642172574996948, 0.40309906005859375, -0.5050568580627441, 
164, 412623009, 1.0538601875305176, -1.8523731231689453, 169.28968811035156, 0.3695829510688782, 0.12327583879232407, 9.944656372070312, -0.9915700554847717, 0.4767099618911743, -0.3257550895214081, 
165, 412639676, 1.0260261297225952, -1.8455719947814941, 169.26622009277344, 0.37957972288131714, 0.08548490703105927, 9.95256519317627, -1.5150936841964722, 0.7517520189285278, -0.418614000082016, 
166, 412656343, 1.0269005298614502, -1.836251974105835, 169.2532501220703, 0.43502527475357056, 0.22161902487277985, 9.965871810913086, 0.21977615356445312, 0.9184008836746216, -0.4698905646800995, 
167, 412673010, 1.0169340372085571, -1.8277008533477783, 169.2445526123047, 0.4256335198879242, 0.23537157475948334, 9.932769775390625, -0.41612955927848816, 0.8797129392623901, 0.3034016191959381, 
168, 412689677, 1.0233724117279053, -1.8254141807556152, 169.24403381347656, 0.42824411392211914, 0.23408633470535278, 9.914652824401855, 0.5774063467979431, 0.516409695148468, 0.7743039131164551, 
169, 412706344, 1.0242654085159302, -1.8143095970153809, 169.24209594726562, 0.3747556805610657, 0.15539725124835968, 9.798934936523438, 0.24705368280410767, 1.0473865270614624, 1.128028154373169, 
170, 412723011, 0.9832431077957153, -1.7802828550338745, 169.21946716308594, 0.366954505443573, 0.07834390550851822, 9.869858741760254, -2.30107045173645, 2.403245687484741, 0.09120041131973267, 
171, 412739678, 0.9494893550872803, -1.7560067176818848, 169.21633911132812, 0.3586200177669525, 0.1459965854883194, 9.995335578918457, -1.8519645929336548, 1.8351176977157593, 0.08948437124490738, 
172, 412756345, 0.9295694231987, -1.7403101921081543, 169.21197509765625, 0.3342183530330658, 0.07432153820991516, 9.927289009094238, -1.0218698978424072, 1.3217369318008423, 0.055278606712818146, 
173, 412773012, 0.8887220621109009, -1.7030476331710815, 169.18185424804688, 0.3074083626270294, 0.14758267998695374, 9.868956565856934, -2.3026201725006104, 2.5907821655273438, -0.7092797160148621, 
174, 412789679, 0.8654182553291321, -1.6432691812515259, 169.13905334472656, 0.28850236535072327, 0.18935738503932953, 10.028326988220215, -1.2705051898956299, 3.9271888732910156, -1.432800054550171, 
175, 412806346, 0.9047197103500366, -1.5894945859909058, 169.0977020263672, 0.31709328293800354, 0.19530710577964783, 10.073039054870605, 2.4867563247680664, 3.5645008087158203, -1.2633850574493408, 
176, 412823013, 0.9349327683448792, -1.5229859352111816, 169.0500946044922, 0.3544221818447113, 0.07533984631299973, 9.96170711517334, 1.9512461423873901, 4.327093124389648, -0.7582128643989563, 
177, 412839680, 0.9144339561462402, -1.4540760517120361, 169.00750732421875, 0.3049917221069336, 0.015174543485045433, 9.905942916870117, -1.102293848991394, 4.475467205047607, -1.7231969833374023, 
178, 412856347, 0.854913055896759, -1.3682186603546143, 168.9464111328125, 0.2835819721221924, -0.01569334603846073, 9.748567581176758, -3.4525668621063232, 5.4776291847229, -2.3548576831817627, 
179, 412873014, 0.7549338340759277, -1.273244857788086, 168.86538696289062, 0.29722321033477783, 0.0775403156876564, 9.775847434997559, -5.885812759399414, 6.01500940322876, -3.10158371925354, 
180, 412889681, 0.6364215612411499, -1.237764596939087, 168.82464599609375, 0.25240519642829895, 0.5943133234977722, 9.731870651245117, -6.943912506103516, 2.4762301445007324, -0.7306408286094666, 
181, 412906348, 0.5193716287612915, -1.24776291847229, 168.9126434326172, 0.39499431848526, 0.40077313780784607, 9.490303993225098, -6.697844982147217, -0.1649266481399536, 7.98364782333374, 
182, 412923015, 0.35645437240600586, -1.3706409931182861, 169.1231689453125, 0.7333237528800964, -0.1446549892425537, 9.239230155944824, -9.306679725646973, -6.885866641998291, 14.409601211547852, 
183, 412939682, 0.5765105485916138, -2.061326026916504, 169.55821228027344, 0.8139276504516602, 0.07416489720344543, 10.420215606689453, 14.18205738067627, -40.80849075317383, 28.02755355834961, 
184, 412956349, 0.7232058644294739, -3.35557222366333, 169.75186157226562, 0.36375969648361206, -3.0498712062835693, 5.284994602203369, 9.54769515991211, -77.06695556640625, 13.620831489562988, 
185, 412973016, -1.9434312582015991, -4.459155082702637, 168.60760498046875, 1.4030793905258179, -3.7656497955322266, 3.398777961730957, -164.40542602539062, -64.9969253540039, -69.92219543457031, 
186, 412989683, -3.699770927429199, -6.723398208618164, 166.04632568359375, 0.2468884438276291, -1.9068217277526855, 8.211775779724121, -119.7687759399414, -127.61615753173828, -158.6990509033203, 
187, 413006350, -3.425906181335449, -9.604752540588379, 163.50975036621094, -0.10344171524047852, -0.26499632000923157, 4.1775078773498535, -4.583416938781738, -162.63998413085938, -160.47186279296875, 
188, 413023017, -3.327150344848633, -13.16268253326416, 160.61936950683594, -0.04811609536409378, 0.023914597928524017, 2.9456140995025635, -27.731048583984375, -202.54730224609375, -181.69224548339844, 
189, 413039684, -3.4079601764678955, -16.88532066345215, 157.44354248046875, -0.31588950753211975, 0.23428739607334137, 0.644559383392334, -53.70502471923828, -211.61973571777344, -196.26864624023438, 
190, 413056351, -4.3204240798950195, -19.752832412719727, 153.82614135742188, -0.21590831875801086, 0.6234551072120667, -0.7228429317474365, -122.4422378540039, -157.24188232421875, -216.60397338867188, 
191, 413073018, -6.206722736358643, -21.38591194152832, 149.87290954589844, 1.4979665279388428, 0.5273293256759644, -0.20956361293792725, -196.022216796875, -76.6682357788086, -229.5476837158203, 
192, 413089685, -6.421591758728027, -21.080524444580078, 145.31471252441406, 4.587353229522705, 0.2482413947582245, 1.521836519241333, -111.54682922363281, 46.83780288696289, -250.72540283203125, 
193, 413106352, -11.749127388000488, -20.851253509521484, 142.1845703125, -1.1806344985961914, 5.737269878387451, 0.4932323098182678, -386.4459533691406, 42.1059684753418, -170.3716278076172, 
194, 413123019, -12.945176124572754, -19.169601440429688, 143.1187744140625, 0.8716821670532227, 2.1906464099884033, 5.238448143005371, -52.55271911621094, 88.02916717529297, 73.87528991699219, 
195, 413139686, -14.8953275680542, -17.366785049438477, 144.51278686523438, 4.808480262756348, 0.9907698035240173, 2.34067964553833, -90.9083480834961, 86.55655670166016, 104.0145263671875, 
196, 413156353, -18.109745025634766, -14.671175003051758, 146.0867462158203, 0.6361759901046753, 1.6256170272827148, 1.3066924810409546, -166.94082641601562, 130.1638946533203, 133.9713134765625, 
197, 413173020, -19.019214630126953, -10.773309707641602, 147.69630432128906, 1.6226096153259277, -1.1275711059570312, 3.0497775077819824, -33.53858184814453, 192.5808563232422, 164.77577209472656, 
198, 413189687, -22.98680305480957, -8.174137115478516, 146.85816955566406, 2.966538667678833, -2.0762457847595215, 2.3049631118774414, -246.534423828125, 164.32489013671875, 10.612625122070312, 
199, 413206354, -28.50959014892578, -6.547857761383057, 144.40870666503906, 1.4530277252197266, -0.6567584872245789, 4.391108989715576, -350.3267822265625, 152.26739501953125, -87.83182525634766, 
200, 413223021, -34.22265625, -5.764211177825928, 142.1858367919922, 1.5136497020721436, 0.2911784052848816, 5.30753231048584, -357.33746337890625, 110.19384765625, -87.5946273803711, 
201, 413239688, -40.65865707397461, -5.817630767822266, 141.23033142089844, 1.3869500160217285, 0.7274191379547119, 6.539266109466553, -392.40966796875, 33.09737777709961, -45.9609260559082, 
202, 413256355, -47.22840118408203, -6.501261234283447, 141.30894470214844, 1.383288860321045, 0.14432871341705322, 4.810513019561768, -394.380126953125, -31.91357421875, -23.687175750732422, 
203, 413273022, -55.29907989501953, -8.309355735778809, 141.6259307861328, 1.2749946117401123, -1.0472819805145264, 4.445345878601074, -482.6105651855469, -81.8531723022461, -71.33137512207031, 
204, 413289689, -65.72119903564453, -11.62650203704834, 142.48416137695312, 0.705915629863739, -0.5855320692062378, 5.05029821395874, -617.2001342773438, -141.6738739013672, -146.77590942382812, 
205, 413306356, -77.8221435546875, -14.142440795898438, 146.31283569335938, -0.9518886208534241, 2.2438199520111084, 7.8013200759887695, -675.5631103515625, -259.9355773925781, -71.57231903076172, 
206, 413323023, -86.85469055175781, -13.76146125793457, 154.5326690673828, -1.336836338043213, 3.7079076766967773, 8.403807640075684, -423.5487060546875, -471.4549560546875, 88.41950225830078, 
207, 413339690, -96.85746765136719, -1.14744234085083, 170.10089111328125, -13.031806945800781, 2.7372384071350098, 2.680800437927246, -474.23992919921875, -952.535888671875, 724.4903564453125, 
208, 413356357, -102.08727264404297, 5.241098880767822, -177.43817138671875, -9.625110626220703, -7.568037509918213, -8.077371597290039, -340.37353515625, -800.3226928710938, 255.6666259765625, 
209, 413373024, -108.33300018310547, 28.574323654174805, -162.69227600097656, -62.9304313659668, 5.693939208984375, -13.322769165039062, -627.5704956054688, -1188.8255615234375, 1122.91357421875, 
210, 413389691, -118.85057830810547, 40.45124435424805, -167.24038696289062, -70.9706802368164, -46.9719123840332, 4.83322811126709, -474.060546875, -77.49469757080078, 742.3684692382812, 
211, 413406358, -117.12117767333984, 42.29846954345703, -162.3634490966797, 13.120931625366211, -33.5268669128418, 42.991668701171875, -90.92561340332031, -243.64093017578125, -6.360151290893555, 
212, 413423025, -111.4886245727539, 43.38604736328125, -150.4935760498047, -0.5444396138191223, -3.406726598739624, -19.35260581970215, -150.02120971679688, -499.11749267578125, -155.14930725097656, 
213, 413439692, -120.60079956054688, 36.2375373840332, -149.3591766357422, -12.423895835876465, -7.910860061645508, -4.749622344970703, -592.0267333984375, 143.78225708007812, -408.26068115234375, 
214, 413456359, -116.82085418701172, 28.435909271240234, -146.95924377441406, -11.773642539978027, -0.364690899848938, -5.7462687492370605, 147.01841735839844, 119.77496337890625, -468.4395751953125, 
215, 413473026, -110.471435546875, 22.24334716796875, -143.50674438476562, -17.240617752075195, 8.073392868041992, -6.839043140411377, 289.8091125488281, -21.390024185180664, -415.2278747558594, 
216, 413489693, -109.80470275878906, 19.71114730834961, -141.38336181640625, -5.130959510803223, -3.486746311187744, 1.795168399810791, -7.0441484451293945, -58.48616027832031, -183.72610473632812, 
217, 413506360, -109.3320083618164, 17.253904342651367, -140.35206604003906, -4.244146347045898, -0.5502862930297852, -8.394464492797852, 7.408440589904785, -5.154482364654541, -158.663818359375, 
218, 413523027, -110.64579010009766, 14.256651878356934, -139.44068908691406, -4.234091758728027, -2.3927736282348633, -8.78393268585205, -94.60198974609375, 12.63097858428955, -187.14236450195312, 
219, 413539694, -110.1472396850586, 12.011353492736816, -138.85401916503906, -5.679749965667725, -1.5984041690826416, -9.433319091796875, 21.286426544189453, 15.337847709655762, -138.37387084960938, 
220, 413556361, -108.33840942382812, 10.834368705749512, -138.82884216308594, -4.834163665771484, -2.2087221145629883, -8.974308013916016, 107.90593719482422, 22.321069717407227, -67.35205841064453, 
221, 413573028, -106.7271957397461, 9.644486427307129, -138.96939086914062, -2.914673328399658, -3.2578277587890625, -8.447139739990234, 98.08768463134766, 29.79824447631836, -65.76478576660156, 
222, 413589695, -107.8691177368164, 8.305347442626953, -139.30580139160156, -3.653237819671631, -2.7397541999816895, -8.1749906539917, -65.27132415771484, 43.26848220825195, -70.92833709716797, 
223, 413606362, -111.16645812988281, 7.396130084991455, -139.67434692382812, -4.978146553039551, -3.547253131866455, -8.645031929016113, -194.58010864257812, 39.23189163208008, -44.201358795166016, 
224, 413623029, -114.66294860839844, 6.776432991027832, -140.15933227539062, -3.304922103881836, -4.886395454406738, -7.391721248626709, -205.83999633789062, 41.46500015258789, -23.054325103759766, 
225, 413639696, -119.56660461425781, 5.527065277099609, -140.41207885742188, -2.0472230911254883, -4.8581953048706055, -8.49856948852539, -292.1703796386719, 48.013427734375, -59.831031799316406, 
226, 413656363, -125.44390106201172, 3.333289623260498, -140.19346618652344, -2.0721898078918457, -4.544070243835449, -7.753168106079102, -353.1495056152344, 60.176719665527344, -117.95079803466797, 
227, 413673030, -129.62669372558594, 0.7234139442443848, -139.85897827148438, -2.599226474761963, -3.1128456592559814, -9.449981689453125, -251.1678009033203, 79.99176025390625, -136.197998046875, 
228, 413689697, -131.52249145507812, -1.5481858253479004, -139.4631805419922, -2.3399972915649414, -1.7833853960037231, -9.28721809387207, -113.06761169433594, 71.10823822021484, -118.68853759765625, 
229, 413706364, -131.658203125, -3.290836811065674, -139.0294647216797, -2.0542821884155273, -1.3550217151641846, -9.632353782653809, -6.525410175323486, 50.455848693847656, -95.13202667236328, 
230, 413723031, -130.3792724609375, -4.5403361320495605, -138.74363708496094, -1.3120840787887573, -1.098679780960083, -9.636892318725586, 78.44387817382812, 36.78738784790039, -67.44144439697266, 
231, 413739698, -128.39454650878906, -5.253898620605469, -138.8563232421875, -2.0561363697052, -1.2461507320404053, -9.704900741577148, 119.0673828125, 32.85307312011719, -28.446086883544922, 
232, 413756365, -125.918212890625, -5.444702625274658, -139.52505493164062, -1.3204063177108765, -1.723325490951538, -9.27553653717041, 145.42962646484375, 39.2166748046875, 15.381893157958984, 
233, 413773032, -123.64604187011719, -5.347555160522461, -140.92112731933594, -1.1788156032562256, -2.2324931621551514, -9.51778507232666, 129.0599822998047, 65.60653686523438, 52.752174377441406, 
234, 413789699, -121.77361297607422, -5.2135796546936035, -142.7615966796875, -1.3303266763687134, -4.509178161621094, -8.747827529907227, 102.81312561035156, 88.59053039550781, 66.59314727783203, 
235, 413806366, -120.2313003540039, -4.9175825119018555, -141.57107543945312, -1.6739145517349243, -3.743455410003662, -8.815008163452148, 99.48255920410156, -69.74513244628906, -21.006879806518555, 
236, 413823033, -116.4803695678711, -4.569106578826904, -141.65753173828125, -1.7595103979110718, -2.7847580909729004, -9.430710792541504, 225.26834106445312, -5.007533550262451, 21.2703914642334, 
237, 413839700, -113.95469665527344, -4.206114292144775, -141.8618927001953, -1.3462482690811157, -4.097153186798096, -8.579582214355469, 151.26376342773438, 2.1387546062469482, 25.319643020629883, 
238, 413856367, -113.3730697631836, -4.111679553985596, -141.70223999023438, -1.3970777988433838, -4.305264472961426, -8.539441108703613, 36.265750885009766, -10.67935848236084, 1.7647943496704102, 
239, 413873034, -112.73178100585938, -4.094635486602783, -141.69000244140625, -1.7740675210952759, -4.570637226104736, -8.446497917175293, 39.210365295410156, -0.7314257621765137, 1.0681641101837158, 
240, 413889701, -111.30170440673828, -3.9418349266052246, -141.64199829101562, -1.2630456686019897, -5.007235050201416, -8.420267105102539, 86.69547271728516, -5.762307643890381, 7.838778495788574, 
241, 413906368, -109.34941864013672, -3.6731207370758057, -141.7319793701172, -1.241085171699524, -4.470686435699463, -8.366191864013672, 117.47541809082031, -0.22121505439281464, 17.407489776611328, 
242, 413923035, -108.3316421508789, -3.3409180641174316, -141.9422149658203, -1.3959050178527832, -4.458896160125732, -8.625591278076172, 61.00621032714844, 5.797208309173584, 23.34879493713379, 
243, 413939702, -107.6917953491211, -3.032898426055908, -142.1494903564453, -1.4011242389678955, -4.483046054840088, -8.397306442260742, 38.428611755371094, 6.408490180969238, 21.835357666015625, 
244, 413956369, -107.95514678955078, -2.6421329975128174, -142.34466552734375, -1.2895543575286865, -5.861182689666748, -8.094796180725098, -15.634557723999023, 4.2708868980407715, 26.32422637939453, 
245, 413973036, -106.74919891357422, -1.9323365688323975, -142.76422119140625, -1.3541926145553589, -4.205780982971191, -8.327921867370605, 72.10782623291016, 11.612054824829102, 48.57958221435547, 
246, 413989703, -106.85209655761719, -1.006661295890808, -143.0546875, -1.1938867568969727, -5.44528865814209, -8.250024795532227, -5.8438520431518555, 0.9209734201431274, 58.6342658996582, 
247, 414006370, -106.56185913085938, -0.23663601279258728, -143.68341064453125, -1.6403166055679321, -5.5010857582092285, -7.888708114624023, 17.7965087890625, 23.136930465698242, 55.52959060668945, 
248, 414023037, -106.0771484375, 0.6991896629333496, -144.324951171875, -1.3964359760284424, -5.843507766723633, -8.2389497756958, 30.043949127197266, 21.442333221435547, 65.14192962646484, 
249, 414039704, -105.60331726074219, 1.5917309522628784, -144.99351501464844, -1.4447040557861328, -5.5669169425964355, -7.308412075042725, 30.056316375732422, 24.231800079345703, 62.90940475463867, 
250, 414056371, -105.33628845214844, 2.41953182220459, -145.68545532226562, -1.7901380062103271, -5.425072193145752, -7.189191818237305, 18.311330795288086, 26.995508193969727, 59.38518142700195, 
251, 414073038, -104.53793334960938, 3.3818817138671875, -146.53683471679688, -1.7981083393096924, -6.108450412750244, -7.610400199890137, 51.33250427246094, 34.65446853637695, 69.39488983154297, 
252, 414089705, -103.09223175048828, 4.524198055267334, -147.40304565429688, -0.8945417404174805, -7.9329352378845215, -12.697343826293945, 91.18243408203125, 34.21123123168945, 79.39773559570312, 
253, 414106372, -105.09268188476562, 4.86307954788208, -147.75294494628906, -2.197723388671875, -5.889683723449707, -2.6693716049194336, -117.38162231445312, 15.564727783203125, 25.283315658569336, 
254, 414123039, -104.77447509765625, 5.546936511993408, -148.66954040527344, -2.2663936614990234, -6.249054908752441, -6.279402732849121, 24.975156784057617, 42.56189727783203, 54.233463287353516, 
255, 414139706, -104.99362182617188, 6.373936653137207, -149.22401428222656, -2.0156443119049072, -6.081272125244141, -7.257747173309326, -8.794989585876465, 19.439977645874023, 56.93143844604492, 
256, 414156373, -105.9250259399414, 6.9225287437438965, -149.74191284179688, -1.9357274770736694, -5.951872825622559, -6.644281387329102, -51.37125778198242, 21.177448272705078, 40.43255615234375, 
257, 414173040, -107.05774688720703, 7.32328987121582, -150.24598693847656, -1.8539721965789795, -7.325669288635254, -7.155189514160156, -63.287967681884766, 22.151554107666016, 32.06035232543945, 
258, 414189707, -106.14778137207031, 7.791027069091797, -150.72193908691406, -1.7535984516143799, -6.42063045501709, -7.257782459259033, 59.28346252441406, 19.30759048461914, 35.47267150878906, 
259, 414206374, -107.01556396484375, 8.27959156036377, -150.9216766357422, -1.476698875427246, -7.043459892272949, -6.798703193664551, -49.44521713256836, 3.199545383453369, 31.973676681518555, 
260, 414223041, -107.0237808227539, 8.35431957244873, -151.2303009033203, -1.691757082939148, -5.91294002532959, -7.504899501800537, 3.1377201080322266, 16.397933959960938, 10.147412300109863, 
261, 414239708, -107.98114013671875, 8.464607238769531, -151.31114196777344, -1.8187267780303955, -5.898936748504639, -7.52993631362915, -55.76264953613281, 2.780244827270508, 8.251703262329102, 
262, 414256375, -108.95198822021484, 8.435442924499512, -151.5225372314453, -1.8938406705856323, -5.30826997756958, -7.928528785705566, -55.39773941040039, 12.650876998901367, 2.811377763748169, 
263, 414273042, -109.87609100341797, 8.439712524414062, -151.62547302246094, -1.8202298879623413, -5.088840484619141, -8.110027313232422, -53.52817916870117, 5.881433963775635, 2.7687034606933594, 
264, 414289709, -110.4441909790039, 8.519513130187988, -151.68894958496094, -1.727946400642395, -4.917050838470459, -8.246172904968262, -32.48614501953125, 2.095069169998169, 6.285835266113281, 
265, 414306376, -110.62004089355469, 8.573359489440918, -151.8074951171875, -1.6474251747131348, -4.901796817779541, -8.241759300231934, -8.430384635925293, 5.666587829589844, 5.982226371765137, 
266, 414323043, -110.88113403320312, 8.540613174438477, -151.864501953125, -1.5094019174575806, -4.954966068267822, -8.216014862060547, -14.067337036132812, 4.076821327209473, -0.15216517448425293, 
267, 414339710, -111.20513153076172, 8.454123497009277, -151.9115447998047, -1.6362730264663696, -4.877732276916504, -8.251119613647461, -17.905452728271484, 4.68941593170166, -3.3547940254211426, 
268, 414356377, -111.37190246582031, 8.325042724609375, -151.99261474609375, -1.6160207986831665, -4.827796936035156, -8.297456741333008, -8.153961181640625, 7.522625923156738, -4.985578536987305, 
269, 414373044, -111.4122543334961, 8.191818237304688, -152.0237579345703, -1.6406323909759521, -4.750629425048828, -8.32539176940918, -0.9818757772445679, 4.870056629180908, -6.287585735321045, 
270, 414389711, -111.2476806640625, 8.098129272460938, -152.03855895996094, -1.6961196660995483, -4.79937219619751, -8.30406665802002, 11.199870109558105, 3.1044723987579346, -4.439426422119141, 
271, 414406378, -110.94719696044922, 8.047503471374512, -152.05274963378906, -1.66671884059906, -4.769272804260254, -8.282739639282227, 19.378870010375977, 2.1240317821502686, -2.0597503185272217, 
272, 414423045, -110.69451141357422, 7.997422695159912, -152.04867553710938, -1.7225406169891357, -4.872559070587158, -8.249378204345703, 16.386577606201172, 1.0913646221160889, -2.4293413162231445, 
273, 414439712, -110.40650177001953, 7.958980560302734, -152.04495239257812, -1.623164415359497, -4.874436855316162, -8.239245414733887, 18.540563583374023, 0.8559966683387756, -1.7787531614303589, 
274, 414456379, -110.1060791015625, 7.9242658615112305, -152.0274658203125, -1.7329483032226562, -4.9900054931640625, -8.17847728729248, 19.203227996826172, 0.004731952212750912, -1.8615716695785522, 
275, 414473046, -109.70695495605469, 7.887849807739258, -152.00204467773438, -1.7556078433990479, -5.112906455993652, -8.083001136779785, 25.091699600219727, -0.413133829832077, -2.123643398284912, 
276, 414489713, -109.37071990966797, 7.867271423339844, -151.94952392578125, -1.7010730504989624, -5.216004848480225, -8.039114952087402, 21.12843132019043, -2.260631561279297, -1.7705320119857788, 
277, 414506380, -109.14899444580078, 7.837930679321289, -151.89703369140625, -1.604988932609558, -5.070370674133301, -8.13159465789795, 14.293465614318848, -2.0926742553710938, -2.263357400894165, 
278, 414523047, -108.65213012695312, 8.777434349060059, -152.88565063476562, -3.5594422817230225, -4.371610641479492, -8.137353897094727, 39.836395263671875, 37.53493118286133, 72.76876831054688, 
279, 414539714, -107.62503051757812, 10.566522598266602, -154.43324279785156, -0.8109774589538574, -8.294864654541016, -6.288005352020264, 78.72347259521484, 53.805572509765625, 130.9223175048828, 
280, 414556381, -108.31587982177734, 11.415253639221191, -154.8154296875, -1.3199210166931152, -7.4060468673706055, -6.412149429321289, -35.56848907470703, 5.898958206176758, 55.822696685791016, 
281, 414573048, -109.42192077636719, 11.994074821472168, -154.03250122070312, -1.7220656871795654, -7.89523458480835, -6.733806133270264, -74.37173461914062, -54.567787170410156, 18.419017791748047, 
282, 414589715, -108.78998565673828, 12.690248489379883, -152.47877502441406, -2.1414382457733154, -7.151773929595947, -6.8967204093933105, 19.50932502746582, -99.53257751464844, 10.0637845993042, 
283, 414606382, -108.41635131835938, 12.867802619934082, -149.72970581054688, -2.294677495956421, -5.3550825119018555, -6.656436920166016, -12.541434288024902, -155.64828491210938, -40.86454772949219, 
284, 414623049, -107.68759155273438, 12.595721244812012, -146.3993682861328, -4.9099273681640625, -1.253629446029663, -13.72281551361084, 1.2140834331512451, -180.02471923828125, -75.62629699707031, 
285, 414639716, -107.0497817993164, 13.206494331359863, -144.4156951904297, -5.861876487731934, -0.28978216648101807, -5.982973575592041, 13.3427734375, -121.41390991210938, 0.510981023311615, 
286, 414656383, -103.16594696044922, 15.091291427612305, -143.8523712158203, -4.316538333892822, -1.8192849159240723, -9.798645973205566, 226.42721557617188, -60.90324783325195, 100.73699188232422, 
287, 414673050, -101.55455017089844, 16.96060562133789, -143.37225341796875, -3.0112111568450928, -6.9339118003845215, -8.441072463989258, 90.48402404785156, -50.90221405029297, 103.65486907958984, 
288, 414689717, -98.6954345703125, 19.340240478515625, -142.94761657714844, -4.745339870452881, -3.421217441558838, -7.71250057220459, 165.38262939453125, -48.862571716308594, 136.30348205566406, 
289, 414706384, -96.724853515625, 22.569000244140625, -142.51885986328125, -5.917459964752197, -2.8525819778442383, -7.071464538574219, 110.84689331054688, -49.825889587402344, 188.70217895507812, 
290, 414723051, -95.87437438964844, 26.413442611694336, -141.86422729492188, -7.014453887939453, -4.471770286560059, -6.806548595428467, 36.599388122558594, -60.98310470581055, 225.2279815673828, 
291, 414739718, -95.42317962646484, 30.344987869262695, -140.91207885742188, -7.709689617156982, -6.025674343109131, -6.787887096405029, 1.7923405170440674, -73.50062561035156, 229.5991668701172, 
292, 414756385, -94.93611145019531, 34.010772705078125, -139.71826171875, -8.19532299041748, -7.1089091300964355, -7.111556053161621, -7.05043363571167, -80.60894775390625, 213.2987823486328, 
293, 414773052, -94.37176513671875, 37.012325286865234, -138.3479766845703, -8.743714332580566, -7.933034420013428, -7.460011959075928, -12.023094177246094, -81.78472137451172, 173.723876953125, 
294, 414789719, -93.58721923828125, 39.07301330566406, -136.8902587890625, -8.92402172088623, -8.511466979980469, -7.835561752319336, -4.947249412536621, -77.83959197998047, 118.15723419189453, 
295, 414806386, -92.86156463623047, 39.99308395385742, -135.72705078125, -8.066784858703613, -8.496912002563477, -8.474687576293945, 1.0176459550857544, -57.445068359375, 51.63947677612305, 
296, 414823053, -92.340087890625, 39.91740417480469, -135.2394561767578, -7.889451026916504, -8.13587474822998, -8.828782081604004, 14.452566146850586, -22.832199096679688, -6.02799654006958, 
297, 414839720, -92.39727783203125, 39.016788482666016, -135.6826171875, -7.8621439933776855, -7.417574882507324, -8.820390701293945, 15.49958610534668, 22.09314727783203, -53.62551498413086, 
298, 414856387, -92.81553649902344, 37.59846496582031, -136.9890594482422, -7.804159164428711, -6.267188549041748, -8.033066749572754, 25.63509750366211, 64.6675033569336, -82.68679809570312, 
299, 414873054, -93.34538269042969, 36.02842712402344, -138.79190063476562, -7.7759222984313965, -4.870867729187012, -7.204240322113037, 35.28754806518555, 90.90275573730469, -89.85875701904297, 
300, 414889721, -94.06986999511719, 34.74244689941406, -140.7042999267578, -7.428490161895752, -3.5811445713043213, -6.588805198669434, 25.356496810913086, 97.7251968383789, -71.37506866455078, 
301, 414906388, -94.9888687133789, 34.18016052246094, -142.40306091308594, -6.782933712005615, -1.9345765113830566, -5.960169315338135, 5.021059513092041, 85.83533477783203, -27.41606903076172, 
302, 414923055, -95.7113265991211, 34.87629699707031, -143.80316162109375, -6.495568752288818, -0.32013076543807983, -5.350586414337158, 6.835577011108398, 64.38749694824219, 47.6093635559082, 
303, 414939722, -96.15308380126953, 37.181671142578125, -145.05911254882812, -5.647688865661621, -1.0283726453781128, -5.458635330200195, 20.44486427307129, 45.626258850097656, 143.42698669433594, 
304, 414956389, -95.90249633789062, 40.96780014038086, -146.51339721679688, -6.077680587768555, -3.2367823123931885, -5.798330783843994, 72.66986083984375, 42.67794418334961, 232.5640869140625, 
305, 414973056, -95.60511016845703, 45.414398193359375, -147.23435974121094, -8.461215019226074, -6.138166904449463, -5.7621002197265625, 50.05223846435547, 3.6009700298309326, 268.1653747558594, 
306, 414989723, -93.15049743652344, 49.44758987426758, -146.75865173339844, -9.121415138244629, -8.29282283782959, -5.965852737426758, 128.7298126220703, -38.96959686279297, 239.3810272216797, 
307, 415006390, -90.0610580444336, 52.398956298828125, -145.5081787109375, -8.713674545288086, -9.253790855407715, -7.0463361740112305, 129.54278564453125, -53.66493606567383, 175.27577209472656, 
308, 415023057, -86.26277923583984, 53.79801559448242, -144.2794952392578, -7.756887912750244, -9.45845890045166, -7.301692962646484, 171.37442016601562, -43.1204833984375, 84.97288513183594, 
309, 415039724, -81.42131042480469, 53.598487854003906, -143.12173461914062, -9.379392623901367, -7.92966365814209, -5.944147109985352, 236.97459411621094, -43.858375549316406, -7.733303546905518, 
310, 415056391, -76.16685485839844, 52.513431549072266, -141.9025115966797, -11.427501678466797, -5.68508243560791, -7.360044002532959, 259.3283386230469, -57.54549789428711, -55.4549560546875, 
311, 415073058, -72.16581726074219, 51.12155532836914, -141.1266632080078, -9.716470718383789, -3.6523003578186035, -7.253085136413574, 206.12049865722656, -52.31108474731445, -72.5709228515625, 
312, 415089725, -69.44760131835938, 50.451263427734375, -140.74554443359375, -8.11211109161377, -2.1785030364990234, -8.032571792602539, 148.16043090820312, -28.789094924926758, -33.27008056640625, 
313, 415106392, -68.26239013671875, 50.985374450683594, -140.90354919433594, -7.831369876861572, -2.5643815994262695, -7.819544792175293, 81.34478759765625, 15.136621475219727, 27.69243049621582, 
314, 415123059, -68.57846069335938, 52.60831069946289, -141.8037567138672, -8.060032844543457, -4.0746307373046875, -7.674485683441162, 26.45820426940918, 64.71778869628906, 78.2442398071289, 
315, 415139726, -70.65045928955078, 54.97783279418945, -144.00103759765625, -8.099990844726562, -5.977609634399414, -7.3934736251831055, -14.877510070800781, 120.20195770263672, 106.12748718261719, 
316, 415156393, -74.57584381103516, 57.57245635986328, -148.00689697265625, -8.409892082214355, -7.884522914886475, -6.5784525871276855, -32.452091217041016, 171.36561584472656, 108.68600463867188, 
317, 415173060, -80.00164794921875, 59.62624740600586, -153.771484375, -9.143941879272461, -9.291375160217285, -5.065848350524902, -27.078554153442383, 200.23117065429688, 80.62185668945312, 
318, 415189727, -85.6161880493164, 60.500572204589844, -160.23007202148438, -8.21168041229248, -8.999557495117188, -3.612687826156616, 2.2044880390167236, 195.6739501953125, 28.126617431640625, 
319, 415206394, -90.64453887939453, 60.377403259277344, -166.21343994140625, -7.314735412597656, -7.795942306518555, -3.112034797668457, 13.847225189208984, 174.03353881835938, -12.62264633178711, 
320, 415223061, -94.88445281982422, 59.5898551940918, -171.4346160888672, -6.8562846183776855, -7.26253604888916, -2.514815092086792, 20.169998168945312, 156.11216735839844, -38.89882278442383, 
321, 415239728, -98.0184097290039, 58.194522857666016, -175.7772216796875, -6.522050857543945, -7.170822620391846, -2.193661689758301, 38.4027099609375, 140.55116271972656, -67.14981079101562, 
322, 415256395, -100.12123107910156, 56.26865005493164, -179.23220825195312, -5.9532151222229, -6.630780220031738, -2.0792932510375977, 51.54814910888672, 126.50122833251953, -95.35310363769531, 
323, 415273062, -100.96341705322266, 54.0593147277832, 178.35260009765625, -5.39252233505249, -5.844396114349365, -1.5967167615890503, 71.87408447265625, 103.25426483154297, -113.97015380859375, 
324, 415289729, -100.30651092529297, 51.938804626464844, 177.27366638183594, -5.682723045349121, -5.053211212158203, -1.6496827602386475, 94.62742614746094, 59.54006576538086, -116.53380584716797, 
325, 415306396, -98.56268310546875, 50.039093017578125, 177.03819274902344, -4.67535924911499, -4.9313812255859375, -2.8598904609680176, 119.18803405761719, 25.370975494384766, -109.5608901977539, 
326, 415323063, -96.6224594116211, 48.328739166259766, 177.04925537109375, -4.407026767730713, -5.203660488128662, -3.9307520389556885, 119.5796890258789, 11.16843318939209, -100.26471710205078, 
327, 415339730, -95.14799499511719, 46.81769561767578, 176.8173065185547, -3.8079142570495605, -5.345065593719482, -4.402087211608887, 102.52032470703125, 16.779151916503906, -87.6198501586914, 
328, 415356397, -94.02177429199219, 45.62605285644531, 176.4309539794922, -3.670494794845581, -5.661977767944336, -4.463120937347412, 88.1915512084961, 19.925457000732422, -68.3075942993164, 
329, 415373064, -92.99263000488281, 44.715576171875, 176.03604125976562, -3.541269063949585, -6.509866237640381, -4.748262882232666, 82.5336685180664, 18.300098419189453, -51.74805450439453, 
330, 415389731, -91.85458374023438, 43.89307403564453, 175.6560821533203, -3.1883838176727295, -7.440628528594971, -5.372738838195801, 88.28294372558594, 16.722810745239258, -46.77981185913086, 
331, 415406398, -91.0535659790039, 42.955528259277344, 174.92779541015625, -2.4125380516052246, -8.073379516601562, -6.207437992095947, 82.28441619873047, 31.537525177001953, -53.497886657714844, 
332, 415423065, -91.12884521484375, 41.73945999145508, 173.40744018554688, -2.348432779312134, -8.316203117370605, -6.258840084075928, 61.25095748901367, 67.22796630859375, -69.6034164428711, 
333, 415439732, -91.9831771850586, 40.18410873413086, 171.16297912597656, -2.450345993041992, -8.089033126831055, -5.081908226013184, 41.476070404052734, 102.68368530273438, -88.29584503173828, 
334, 415456399, -92.98294067382812, 38.38713073730469, 168.6927947998047, -2.5577337741851807, -7.478724002838135, -3.418745756149292, 38.41001510620117, 117.86626434326172, -100.3398208618164, 
335, 415473066, -93.64537048339844, 36.486454010009766, 166.52816772460938, -2.506730318069458, -6.919913291931152, -2.3289499282836914, 43.803436279296875, 108.26155853271484, -105.31784057617188, 
336, 415489733, -93.89485168457031, 34.611785888671875, 164.90699768066406, -2.283066987991333, -6.6133317947387695, -1.8042023181915283, 46.206111907958984, 85.2275390625, -104.33196258544922, 
337, 415506400, -93.66295623779297, 32.87523651123047, 163.98167419433594, -2.0353124141693115, -6.768253326416016, -1.6629698276519775, 49.39533233642578, 51.943477630615234, -98.12621307373047, 
338, 415523067, -92.91175079345703, 31.23079490661621, 163.69525146484375, -1.541800618171692, -7.209924697875977, -2.3546547889709473, 58.87021255493164, 19.35980987548828, -94.80614471435547, 
339, 415539734, -91.7148666381836, 29.50739860534668, 163.81546020507812, -1.4790284633636475, -7.471657752990723, -3.409456968307495, 72.90975952148438, -2.72792649269104, -100.66148376464844, 
340, 415556401, -90.3230209350586, 27.607147216796875, 163.99317932128906, -0.9843709468841553, -7.116461277008057, -4.654519081115723, 83.26031494140625, -7.853837490081787, -111.21818542480469, 
341, 415573068, -89.01182556152344, 25.589242935180664, 163.84515380859375, -0.49966591596603394, -6.600987911224365, -5.569016933441162, 87.62867736816406, 6.901260852813721, -118.1278076171875, 
342, 415589735, -87.84922790527344, 23.474571228027344, 163.1726531982422, -0.2929295301437378, -6.009422779083252, -5.574667930603027, 91.63320922851562, 33.076087951660156, -124.77713775634766, 
343, 415606402, -86.81605529785156, 21.41149139404297, 162.0634002685547, 0.06192035973072052, -5.287904262542725, -5.035310745239258, 92.64282989501953, 55.75121307373047, -123.35797119140625, 
344, 415623069, -85.87972259521484, 19.493173599243164, 160.71859741210938, 0.32251206040382385, -4.860110759735107, -4.086435794830322, 89.70973205566406, 68.39363861083984, -116.41524505615234, 
345, 415639736, -84.9081802368164, 17.72847557067871, 159.32180786132812, 0.8232141733169556, -4.462897300720215, -3.339402198791504, 90.42609405517578, 71.15473175048828, -108.54219818115234, 
346, 415656403, -83.95455169677734, 16.171897888183594, 157.95333862304688, 1.4342460632324219, -4.0550007820129395, -2.6529157161712646, 86.57106018066406, 69.80059814453125, -97.09332275390625, 
347, 415673070, -83.0639877319336, 14.920159339904785, 156.6916046142578, 1.804572343826294, -3.706115961074829, -1.8156929016113281, 79.1523208618164, 64.85926055908203, -79.2853012084961, 
348, 415689737, -82.38805389404297, 14.138263702392578, 155.6667022705078, 2.187185764312744, -3.26444149017334, -1.1525391340255737, 61.40965270996094, 54.14234924316406, -50.40406036376953, 
349, 415706404, -82.07998657226562, 14.089123725891113, 155.04322814941406, 2.284708023071289, -3.223073959350586, -0.6919337511062622, 33.03420639038086, 36.67080307006836, -4.082021236419678, 
350, 415723071, -82.15281677246094, 14.855447769165039, 154.96791076660156, 2.0881049633026123, -4.167132377624512, -0.5106616020202637, 2.2029869556427, 11.76175594329834, 48.73473358154297, 
351, 415739738, -82.38390350341797, 16.25672721862793, 155.42347717285156, 1.7780762910842896, -5.983214855194092, -0.7822155356407166, -15.70358657836914, -13.745806694030762, 90.6685791015625, 
352, 415756405, -82.64088439941406, 17.97066879272461, 156.32192993164062, 1.3075804710388184, -7.7755279541015625, -1.3673627376556396, -25.704465866088867, -36.784629821777344, 112.4835205078125, 
353, 415773072, -82.86196899414062, 19.697507858276367, 157.53256225585938, 0.6994588375091553, -9.065224647521973, -2.2238097190856934, -31.01450538635254, -54.40103530883789, 115.24563598632812, 
354, 415789739, -83.00137329101562, 21.3205623626709, 158.9196014404297, 0.16372214257717133, -9.923382759094238, -2.9275331497192383, -31.667335510253906, -64.82420349121094, 109.98340606689453, 
355, 415806406, -83.10697174072266, 22.804161071777344, 160.3935546875, -0.3827468752861023, -10.40920352935791, -3.524294853210449, -33.524288177490234, -70.2251205444336, 101.97159576416016, 
356, 415823073, -83.11592864990234, 24.123979568481445, 161.87899780273438, -0.9143598675727844, -10.73241138458252, -4.073435306549072, -29.809892654418945, -71.4754867553711, 92.05935668945312, 
357, 415839740, -82.96489715576172, 25.20793342590332, 163.29881286621094, -1.2143828868865967, -10.957897186279297, -4.490447521209717, -20.078813552856445, -68.93060302734375, 77.50934600830078, 
358, 415856407, -82.64400482177734, 26.041345596313477, 164.58181762695312, -1.4550988674163818, -10.92594051361084, -5.027564525604248, -7.428371906280518, -62.7014045715332, 61.81452941894531, 
359, 415873074, -82.31764221191406, 26.67345428466797, 165.59022521972656, -1.4267098903656006, -10.984436988830566, -5.549009799957275, -0.46413546800613403, -49.000431060791016, 48.15943145751953, 
360, 415889741, -82.20759582519531, 27.089130401611328, 166.12168884277344, -1.195090413093567, -11.123946189880371, -5.949277877807617, -0.7912834286689758, -25.13538932800293, 31.99074935913086, 
361, 415906408, -82.52050018310547, 27.166501998901367, 165.97572326660156, -0.7540110945701599, -11.110174179077148, -5.899057865142822, -7.552311897277832, 7.966641426086426, 7.051794528961182, 
362, 415923075, -83.2649154663086, 26.874727249145508, 165.1395721435547, -0.5269503593444824, -10.447405815124512, -5.212421894073486, -14.46540355682373, 41.781768798828125, -19.312068939208984, 
363, 415939742, -84.29206085205078, 26.35541343688965, 163.8229217529297, -0.5911970734596252, -9.283185958862305, -4.183355808258057, -18.695280075073242, 66.44884490966797, -34.889774322509766, 
364, 415956409, -85.46107482910156, 25.844457626342773, 162.30130004882812, -0.4272126853466034, -8.247238159179688, -3.28659725189209, -22.353666305541992, 78.56785583496094, -33.94171905517578, 
365, 415973076, -86.85057067871094, 25.515575408935547, 160.76231384277344, -0.24479460716247559, -7.596478462219238, -2.5030696392059326, -35.70159149169922, 81.37044525146484, -21.177932739257812, 
366, 415989743, -88.37669372558594, 25.47144889831543, 159.4050750732422, -0.2506583333015442, -7.438389778137207, -1.7762707471847534, -48.8661994934082, 72.97183990478516, -1.4559229612350464, 
367, 416006410, -89.90904998779297, 25.689163208007812, 158.39036560058594, -0.26761773228645325, -7.731807708740234, -1.4306923151016235, -58.02661895751953, 54.67917251586914, 16.619367599487305, 
368, 416023077, -91.29181671142578, 26.071109771728516, 157.7753448486328, -0.2694435119628906, -8.257088661193848, -1.4536809921264648, -59.25174331665039, 32.437862396240234, 27.73149299621582, 
369, 416039744, -92.41614532470703, 26.511991500854492, 157.5136260986328, -0.33264413475990295, -8.816082000732422, -1.9619407653808594, -52.90194320678711, 12.588706970214844, 31.416425704956055, 
370, 416056411, -93.25885009765625, 26.917871475219727, 157.49984741210938, -0.4006935954093933, -9.158880233764648, -2.6289865970611572, -42.564308166503906, -1.1949844360351562, 28.911104202270508, 
371, 416073078, -93.87821197509766, 27.261219024658203, 157.59521484375, -0.426722913980484, -9.330615043640137, -3.2889931201934814, -32.08890914916992, -7.183470726013184, 24.815711975097656, 
372, 416089745, -94.35859680175781, 27.54745101928711, 157.68594360351562, -0.47796741127967834, -9.455710411071777, -3.7471818923950195, -23.577552795410156, -6.94566535949707, 21.375062942504883, 
373, 416106412, -94.71113586425781, 27.749380111694336, 157.7354736328125, -0.5229724645614624, -9.643168449401855, -4.013205528259277, -14.696770668029785, -4.537386894226074, 16.49114227294922, 
374, 416123079, -94.91267395019531, 27.794246673583984, 157.73593139648438, -0.596017599105835, -9.757207870483398, -4.095311164855957, -4.186524391174316, -1.2448925971984863, 7.342592716217041, 
375, 416139746, -94.9600601196289, 27.658416748046875, 157.7122802734375, -0.6940489411354065, -9.523334503173828, -4.049982070922852, 5.822464942932129, 0.9480605721473694, -3.2994794845581055, 
376, 416156413, -94.86029052734375, 27.444692611694336, 157.72238159179688, -0.7630915641784668, -8.996598243713379, -3.871563673019409, 13.800192832946777, -0.4270153045654297, -8.059440612792969, 
377, 416173080, -94.66417694091797, 27.30092430114746, 157.765625, -0.644579291343689, -8.583306312561035, -3.932114601135254, 18.753482818603516, -2.5421276092529297, -3.9792580604553223, 
378, 416189747, -94.5146713256836, 27.268766403198242, 157.76779174804688, -0.47763189673423767, -8.574963569641113, -4.064741611480713, 17.175220489501953, -0.9065623879432678, 2.918217897415161, 
379, 416206414, -94.47730255126953, 27.26936149597168, 157.68765258789062, -0.4418189227581024, -8.741782188415527, -4.037098407745361, 12.791729927062988, 3.31506085395813, 5.269311428070068, 
380, 416223081, -94.524169921875, 27.292919158935547, 157.5688018798828, -0.4767007827758789, -8.735126495361328, -3.8564207553863525, 8.879843711853027, 5.258962154388428, 6.860589504241943, 
381, 416239748, -94.53006744384766, 27.372896194458008, 157.52023315429688, -0.5547465085983276, -8.890433311462402, -3.722179412841797, 9.48156452178955, 1.2439775466918945, 9.993767738342285, 
382, 416256415, -94.46569061279297, 27.471399307250977, 157.5527801513672, -0.490713894367218, -9.145039558410645, -3.957638740539551, 11.531865119934082, -3.161506414413452, 10.806565284729004, 
383, 416273082, -94.4101791381836, 27.512920379638672, 157.56350708007812, -0.39763057231903076, -9.29470443725586, -4.1616010665893555, 11.68232536315918, -1.7403457164764404, 7.533884048461914, 
384, 416289749, -94.37718963623047, 27.462600708007812, 157.4815216064453, -0.3546105623245239, -9.20824909210205, -4.120203495025635, 12.983781814575195, 3.60394549369812, 2.4751548767089844, 
385, 416306416, -94.33329010009766, 27.37714385986328, 157.319580078125, -0.36945635080337524, -8.923958778381348, -3.8638296127319336, 15.919175148010254, 8.018033027648926, 0.75888592004776, 
386, 416323083, -94.24275970458984, 27.332632064819336, 157.14950561523438, -0.4019348621368408, -8.748272895812988, -3.5229856967926025, 19.000377655029297, 8.283916473388672, 3.300931930541992, 
387, 416339750, -94.04920196533203, 27.358558654785156, 157.0574493408203, -0.48577606678009033, -8.79068374633789, -3.1430890560150146, 23.08316421508789, 3.841439723968506, 7.255248069763184, 
388, 416356417, -93.66606903076172, 27.442895889282227, 157.12071228027344, -0.5564622282981873, -8.958270072937012, -2.9802021980285645, 30.227327346801758, -4.618793964385986, 10.221521377563477, 
389, 416373084, -93.12671661376953, 27.561979293823242, 157.33172607421875, -0.5686590075492859, -9.1570405960083, -2.982520341873169, 35.55563735961914, -12.52370548248291, 11.900949478149414, 
390, 416389751, -92.4400405883789, 27.673004150390625, 157.6563720703125, -0.6425997614860535, -9.426939964294434, -3.0863473415374756, 41.284637451171875, -18.41731071472168, 11.276620864868164, 
391, 416406418, -91.6440200805664, 27.71213150024414, 158.0428009033203, -0.7387686371803284, -9.571940422058105, -3.1863362789154053, 46.17658615112305, -21.412288665771484, 7.093471050262451, 
392, 416423085, -90.79298400878906, 27.67060661315918, 158.43673706054688, -0.7900394201278687, -9.604164123535156, -3.2982118129730225, 49.36383819580078, -21.623329162597656, 2.5605921745300293, 
393, 416439752, -89.93357849121094, 27.545255661010742, 158.79278564453125, -0.8920286297798157, -9.567984580993652, -3.3886265754699707, 51.04646682739258, -19.56398582458496, -2.124871015548706, 
394, 416456419, -89.1192626953125, 27.31899642944336, 159.04310607910156, -0.934884786605835, -9.457266807556152, -3.545882225036621, 51.42191696166992, -14.040380477905273, -7.926002502441406, 
395, 416473086, -88.40034484863281, 26.982959747314453, 159.15855407714844, -1.0001482963562012, -9.162094116210938, -3.457622528076172, 49.556541442871094, -7.106362342834473, -14.452333450317383, 
396, 416489753, -87.82339477539062, 26.609256744384766, 159.12945556640625, -0.9689177870750427, -8.663628578186035, -3.2983932495117188, 45.075870513916016, 0.4092814326286316, -16.848278045654297, 
397, 416506420, -87.44124603271484, 26.332992553710938, 158.9751739501953, -0.8701691031455994, -8.214401245117188, -3.0359363555908203, 36.801727294921875, 7.27218770980835, -11.241325378417969, 
398, 416523087, -87.30157470703125, 26.247007369995117, 158.71072387695312, -0.7523878812789917, -8.070048332214355, -2.8567593097686768, 25.207509994506836, 13.706427574157715, -0.08862020075321198, 
399, 416539754, -87.41699981689453, 26.359121322631836, 158.33755493164062, -0.6032732129096985, -8.269716262817383, -2.652660369873047, 12.832230567932129, 20.10530662536621, 11.579459190368652, 
400, 416556421, -87.70671081542969, 26.59113311767578, 157.86834716796875, -0.6081623435020447, -8.891569137573242, -2.477105140686035, 5.021765232086182, 25.495159149169922, 18.701133728027344, 
401, 416573088, -88.0613784790039, 26.816938400268555, 157.34835815429688, -0.4904209077358246, -9.373970985412598, -2.3200175762176514, 2.599026918411255, 28.046356201171875, 18.468769073486328, 
402, 416589755, -88.46235656738281, 26.966588973999023, 156.8236541748047, -0.4592023491859436, -9.62449836730957, -2.140573740005493, 0.03697846084833145, 28.00045394897461, 14.184586524963379, 
403, 416606422, -88.90409851074219, 27.009078979492188, 156.33998107910156, -0.3555585741996765, -9.683810234069824, -2.020353317260742, -3.4812488555908203, 25.55771827697754, 8.11708927154541, 
404, 416623089, -89.41505432128906, 26.9456787109375, 155.89573669433594, -0.33334892988204956, -9.516144752502441, -1.8689769506454468, -8.717787742614746, 23.331418991088867, 2.1083457469940186, 
405, 416639756, -89.87486267089844, 26.84851837158203, 155.55563354492188, -0.4359537959098816, -9.26976490020752, -1.7342612743377686, -8.515707969665527, 17.792978286743164, 0.40198540687561035, 
406, 416656423, -90.24839782714844, 26.780588150024414, 155.36148071289062, -0.4321903884410858, -9.132609367370605, -1.9354747533798218, -7.319787502288818, 10.029196739196777, 2.345625162124634, 
407, 416673090, -90.5704574584961, 26.74116325378418, 155.24411010742188, -0.3849548399448395, -9.169632911682129, -2.249390125274658, -6.308864593505859, 5.9253458976745605, 4.1399993896484375, 
408, 416689757, -90.91539764404297, 26.699108123779297, 155.1009979248047, -0.36099398136138916, -9.157005310058594, -2.5088138580322266, -6.971120834350586, 7.311097621917725, 4.085855007171631, 
409, 416706424, -91.34119415283203, 26.669788360595703, 154.88815307617188, -0.42160680890083313, -9.060247421264648, -2.5623676776885986, -9.927342414855957, 11.033318519592285, 5.030632495880127, 
410, 416723091, -91.82585906982422, 26.6854305267334, 154.642333984375, -0.5856622457504272, -8.94959831237793, -2.4556491374969482, -12.56014347076416, 12.711175918579102, 7.923196315765381, 
411, 416739758, -92.34010314941406, 26.791940689086914, 154.40859985351562, -0.631511926651001, -8.947535514831543, -2.437932252883911, -14.644476890563965, 11.804901123046875, 13.513644218444824, 
412, 416756425, -92.90104675292969, 26.997758865356445, 154.20750427246094, -0.7582226991653442, -9.198732376098633, -2.447458028793335, -18.295042037963867, 9.649725914001465, 19.547231674194336, 
413, 416773092, -93.39867401123047, 27.216251373291016, 154.08651733398438, -0.911022961139679, -9.599872589111328, -2.487462282180786, -16.645715713500977, 5.130697250366211, 20.201284408569336, 
414, 416789759, -93.77752685546875, 27.343358993530273, 154.05178833007812, -1.0248076915740967, -9.832326889038086, -2.6987063884735107, -11.867280960083008, 0.7145950794219971, 14.513670921325684, 
415, 416806426, -94.07476806640625, 27.338239669799805, 154.0389862060547, -1.0049561262130737, -9.741907119750977, -3.0374152660369873, -7.54949951171875, 0.014887386001646519, 6.5565266609191895, 
416, 416823093, -94.381103515625, 27.23655891418457, 153.96200561523438, -1.0086086988449097, -9.501114845275879, -3.2695963382720947, -6.30441427230835, 3.838313102722168, 1.0669420957565308, 
417, 416839760, -94.74056243896484, 27.083885192871094, 153.77130126953125, -0.9332761168479919, -9.261094093322754, -3.408743143081665, -6.362683296203613, 10.160914421081543, -1.4334408044815063, 
418, 416856427, -95.19249725341797, 26.92406463623047, 153.44720458984375, -0.9289979338645935, -9.045921325683594, -3.374361276626587, -8.288729667663574, 17.36442756652832, -1.1112596988677979, 
419, 416873094, -95.74270629882812, 26.777307510375977, 153.01414489746094, -0.9200537800788879, -8.97364616394043, -3.206449270248413, -11.281344413757324, 23.172714233398438, 0.44843459129333496, 
420, 416889761, -96.31755828857422, 26.62622833251953, 152.53257751464844, -0.9215572476387024, -9.04322338104248, -2.949111223220825, -11.528051376342773, 25.859989166259766, 0.7707586288452148, 
421, 416906428, -96.83352661132812, 26.452251434326172, 152.08055114746094, -0.9455306529998779, -9.06441593170166, -2.7092888355255127, -8.89033031463623, 24.522701263427734, -0.44704514741897583, 
422, 416923095, -97.27200317382812, 26.29936408996582, 151.70230102539062, -0.9175882935523987, -8.989561080932617, -2.599618911743164, -6.315436363220215, 20.522459030151367, 0.5987042784690857, 
423, 416939762, -97.66150665283203, 26.21887969970703, 151.41897583007812, -0.9135721325874329, -8.914986610412598, -2.528381824493408, -5.9722089767456055, 14.953483581542969, 4.451087951660156, 
424, 416956429, -98.00790405273438, 26.276567459106445, 151.21969604492188, -0.702359139919281, -8.900018692016602, -2.5513970851898193, -5.646574020385742, 9.345634460449219, 12.187493324279785, 
425, 416973096, -98.36469268798828, 26.495386123657227, 151.05079650878906, -0.5634041428565979, -9.189684867858887, -2.651374101638794, -7.083884239196777, 6.272773265838623, 21.617843627929688, 
426, 416989763, -98.73213195800781, 26.79043960571289, 150.86924743652344, -0.48138266801834106, -9.778522491455078, -2.7299954891204834, -7.366168022155762, 6.102569103240967, 26.31827735900879, 
427, 417006430, -99.05304718017578, 27.017362594604492, 150.6818389892578, -0.4529358446598053, -10.31904411315918, -2.706580638885498, -4.398675918579102, 6.858313083648682, 22.410810470581055, 
428, 417023097, -99.24180603027344, 27.029926300048828, 150.5475311279297, -0.5499998927116394, -10.556416511535645, -2.573712110519409, 2.0788044929504395, 6.003926753997803, 9.349958419799805, 
429, 417039764, -99.21656036376953, 26.792755126953125, 150.54605102539062, -0.5925297737121582, -10.402872085571289, -2.4793829917907715, 11.277386665344238, 1.4237147569656372, -6.514260768890381, 
430, 417056431, -98.9865951538086, 26.366708755493164, 150.689697265625, -0.679513692855835, -9.969679832458496, -2.466578722000122, 19.65586280822754, -4.435145854949951, -18.898639678955078, 
431, 417073098, -98.47037506103516, 25.80519676208496, 151.05015563964844, -1.0697741508483887, -9.427178382873535, -2.350778579711914, 31.19635581970215, -14.840143203735352, -28.66037940979004, 
432, 417089765, -97.4502182006836, 25.13612937927246, 151.6801300048828, -1.3365087509155273, -8.689985275268555, -2.704942464828491, 54.7242317199707, -28.828699111938477, -36.90224075317383, 
433, 417106432, -96.20037841796875, 24.51512336730957, 152.3896026611328, -1.2075639963150024, -8.09737777709961, -3.481618642807007, 66.95858001708984, -34.32822799682617, -34.04359817504883, 
434, 417123099, -95.12060546875, 23.917694091796875, 152.8494415283203, -0.7880792021751404, -8.052168846130371, -4.096163272857666, 63.39944839477539, -21.714033126831055, -30.64664649963379, 
435, 417139766, -94.46454620361328, 23.07746696472168, 152.8903350830078, 0.4320136308670044, -8.557171821594238, -3.7241063117980957, 48.396751403808594, 1.93183434009552, -42.916465759277344, 
436, 417156433, -93.86663818359375, 21.466032028198242, 152.82907104492188, 1.2316694259643555, -8.515716552734375, -1.8013436794281006, 47.32663345336914, 10.596731185913086, -88.61840057373047, 
437, 417173100, -92.98688507080078, 18.62579345703125, 152.60653686523438, 2.3019375801086426, -7.178996562957764, -0.8546743988990784, 67.39165496826172, 23.263608932495117, -161.70469665527344, 
438, 417189767, -91.58714294433594, 14.37937068939209, 152.5015869140625, 1.6591908931732178, -5.459166049957275, 1.9570088386535645, 95.70430755615234, 17.339946746826172, -246.59877014160156, 
439, 417206434, -88.35572814941406, 9.14945125579834, 153.32144165039062, 0.9882275462150574, -4.120031356811523, 1.5065940618515015, 193.53834533691406, -46.35383605957031, -306.0921630859375, 
440, 417223101, -84.81861114501953, 3.084446668624878, 154.1770477294922, 0.7933825850486755, -3.1264402866363525, 0.36433929204940796, 216.2342071533203, -69.64749908447266, -352.76849365234375, 
441, 417239768, -81.92594909667969, -3.62784743309021, 154.3394317626953, 0.6501109600067139, -1.9590951204299927, -0.6233587265014648, 182.8570098876953, -52.13783264160156, -391.7551574707031, 
442, 417256435, -80.30601501464844, -10.497998237609863, 153.3094024658203, 0.3844013214111328, -0.5358242988586426, -1.3405141830444336, 98.52564239501953, 1.923385739326477, -409.7535705566406, 
443, 417273102, -80.2740707397461, -16.871368408203125, 150.8329315185547, -0.11158795654773712, 0.8022568225860596, -1.5551623106002808, -24.791587829589844, 83.49691009521484, -394.251708984375, 
444, 417289769, -81.57473754882812, -22.237388610839844, 147.08908081054688, -0.5410211682319641, 1.7193139791488647, -0.7672032117843628, -145.4429931640625, 164.2596893310547, -344.01373291015625, 
445, 417306436, -83.68097686767578, -26.370826721191406, 142.6929168701172, -0.7163000106811523, 2.281440019607544, 0.6850471496582031, -227.93629455566406, 212.5269012451172, -269.06219482421875, 
446, 417323103, -85.8746566772461, -28.966266632080078, 138.68380737304688, -0.060442402958869934, 2.533660888671875, 2.750270366668701, -237.1106414794922, 203.51980590820312, -166.3123321533203, 
447, 417339770, -87.23614501953125, -30.14813804626465, 137.70635986328125, 0.30508753657341003, 2.158726453781128, 6.856022357940674, -104.96378326416016, 51.74717712402344, -65.46427154541016, 
448, 417356437, -87.31941223144531, -30.03181266784668, 137.37100219726562, 2.7182931900024414, 1.790360450744629, 0.3807627260684967, -9.72472095489502, 22.50956153869629, 14.569973945617676, 
449, 417373104, -91.49296569824219, -29.803844451904297, 136.57171630859375, 2.515655279159546, 1.405212163925171, 1.5562211275100708, -269.02630615234375, 46.13850402832031, 21.85276222229004, 
450, 417389771, -95.11590576171875, -29.48786735534668, 136.5060577392578, 1.7539770603179932, 0.7334312200546265, 5.382524013519287, -214.0927276611328, 6.117505073547363, 27.955398559570312, 
451, 417406438, -99.2332763671875, -28.57170867919922, 138.71707153320312, 0.8236603140830994, 1.6727038621902466, 5.081241607666016, -177.38253784179688, -118.77018737792969, 48.9470100402832, 
452, 417423105, -104.41350555419922, -26.47586441040039, 142.99720764160156, 0.042960599064826965, 1.8712984323501587, 4.941080570220947, -186.3959503173828, -246.072265625, 85.21038818359375, 
453, 417439772, -109.74640655517578, -22.870929718017578, 148.95980834960938, -1.3771233558654785, 2.038200616836548, 5.232816696166992, -164.0634765625, -372.2296447753906, 119.70800018310547, 
454, 417456439, -113.36656951904297, -17.07596778869629, 156.22064208984375, -3.9361798763275146, 2.4748382568359375, 3.480879783630371, -60.857032775878906, -506.93414306640625, 180.6051025390625, 
455, 417473106, -116.63182067871094, -9.374709129333496, 163.13864135742188, -6.7141032218933105, 3.1572306156158447, 0.46040868759155273, -92.35713195800781, -560.3939208984375, 254.80738830566406, 
456, 417489773, -120.0022964477539, 0.5448911786079407, 169.83831787109375, -11.044474601745605, 2.8939788341522217, 0.7666062116622925, -161.5397186279297, -634.8152465820312, 339.395751953125, 
457, 417506440, -120.21399688720703, 15.330245018005371, 177.89146423339844, -39.42083740234375, 11.138656616210938, 13.439403533935547, -69.74897766113281, -859.7212524414062, 530.2098388671875, 
458, 417523107, -100.43716430664062, 49.56873321533203, -163.003662109375, -71.36881256103516, -15.820401191711426, -20.34986114501953, 523.0012817382812, -1638.6630859375, 1568.9976806640625, 
459, 417539774, -101.13957977294922, 43.4849853515625, -158.76544189453125, -38.62073516845703, -59.53728485107422, 79.87892150878906, -218.14791870117188, -106.06048583984375, -393.3734130859375, 
460, 417556441, -86.74458312988281, 48.31111526489258, -155.0987091064453, -0.6611902713775635, -22.23008155822754, 10.490766525268555, 724.4379272460938, -69.33311462402344, 260.7343444824219, 
461, 417573108, -85.89661407470703, 42.027889251708984, -146.63360595703125, 3.734516143798828, -0.37857091426849365, -33.35696029663086, -305.00115966796875, -365.467041015625, -354.7515563964844, 
462, 417589775, -93.01618194580078, 39.676246643066406, -137.36329650878906, -9.755656242370605, -1.6940827369689941, 11.871588706970215, -786.5184936523438, -410.4145202636719, -137.0262451171875, 
463, 417606442, -79.84474182128906, 39.247406005859375, -129.69566345214844, -9.606566429138184, -0.6165008544921875, -9.368966102600098, 500.3907165527344, -360.9187316894531, -1.8517725467681885, 
464, 417623109, -83.7101058959961, 38.35542678833008, -123.8244857788086, -4.210373401641846, -0.6958873867988586, -9.959524154663086, -448.83135986328125, -278.67950439453125, -12.823415756225586, 
465, 417639776, -83.10844421386719, 38.00940704345703, -119.86254119873047, -2.4430642127990723, -2.8244168758392334, -2.2140612602233887, -106.76445770263672, -195.0238037109375, 1.063118577003479, 
466, 417656443, -87.74028015136719, 37.563106536865234, -118.1706771850586, -7.241968631744385, -2.7765774726867676, -2.819838285446167, -335.9287109375, -89.65097045898438, -20.753662109375, 
467, 417673110, -86.50090789794922, 36.77771759033203, -119.4749984741211, -10.615715980529785, 0.8047634363174438, -12.210770606994629, 126.12098693847656, 50.82930374145508, -51.473541259765625, 
468, 417689777, -91.19508361816406, 36.66518783569336, -121.47083282470703, -4.300230979919434, 0.5333380103111267, -4.219091892242432, -204.37574768066406, 76.8481216430664, -12.412483215332031, 
469, 417706444, -93.27960205078125, 36.918312072753906, -123.83203125, -11.104710578918457, 0.21518626809120178, -1.4515100717544556, -34.03473663330078, 90.74844360351562, 14.260558128356934, 
470, 417723111, -96.48666381835938, 37.4063606262207, -125.30941009521484, -12.283740043640137, -0.7649401426315308, -3.3992538452148438, -132.22088623046875, 43.65193176269531, 28.10529899597168, 
471, 417739778, -99.08686065673828, 38.40138626098633, -125.98429107666016, -9.976284980773926, -0.2954961359500885, -3.0483593940734863, -124.13265228271484, -3.9051005840301514, 53.72696304321289, 
472, 417756445, -102.89143371582031, 39.7063102722168, -126.39632415771484, -9.574321746826172, -0.9037630558013916, -3.0566210746765137, -205.78363037109375, -25.99587631225586, 67.75614166259766, 
473, 417773112, -106.51140594482422, 40.90262985229492, -126.78694152832031, -8.610041618347168, -2.202484369277954, -4.434201717376709, -195.45790100097656, -32.598052978515625, 57.731414794921875, 
474, 417789779, -109.67780303955078, 41.75773239135742, -127.17499542236328, -8.192367553710938, -1.3333115577697754, -5.179254055023193, -168.39654541015625, -33.025848388671875, 34.36836242675781, 
475, 417806446, -112.3028564453125, 42.41560363769531, -127.7591781616211, -8.401844024658203, -1.216385841369629, -4.82080602645874, -128.03909301757812, -25.72359848022461, 22.71333885192871, 
476, 417823113, -114.62590026855469, 42.892784118652344, -128.46868896484375, -8.230417251586914, -0.5872419476509094, -4.828822612762451, -104.74596405029297, -20.650400161743164, 11.828354835510254, 
477, 417839780, -115.99064636230469, 43.30315399169922, -129.4328155517578, -8.21151065826416, -0.7567319869995117, -4.850730895996094, -36.597740173339844, -11.803318977355957, 10.769451141357422, 
478, 417856447, -117.1416244506836, 43.631465911865234, -130.55140686035156, -8.317092895507812, -0.5662370920181274, -4.639251708984375, -17.173582077026367, -6.934110641479492, 7.503551959991455, 
479, 417873114, -117.13676452636719, 44.333160400390625, -131.66738891601562, -9.041143417358398, -0.2998725473880768, -3.96463942527771, 52.357398986816406, -19.84255599975586, 26.171775817871094, 
480, 417889781, -116.62577056884766, 45.278438568115234, -132.62249755859375, -8.447168350219727, -0.8494758009910583, -4.321051120758057, 76.18095397949219, -34.51419448852539, 35.2684440612793, 
481, 417906448, -115.17290496826172, 46.15995788574219, -133.4412078857422, -8.289449691772461, -0.9990832805633545, -5.128669261932373, 126.85417938232422, -39.14607620239258, 29.25833511352539, 
482, 417923115, -113.39473724365234, 47.00609588623047, -134.2135772705078, -8.529101371765137, -1.0706884860992432, -4.216681480407715, 144.1925811767578, -41.37566375732422, 26.847232818603516, 
483, 417939782, -110.8916015625, 47.965641021728516, -134.70657348632812, -8.00854778289795, -0.9434149265289307, -6.004631042480469, 175.1671905517578, -54.34524917602539, 30.14072036743164, 
484, 417956449, -109.2250747680664, 48.44154739379883, -135.6044158935547, -8.275120735168457, -1.7889039516448975, -4.599867343902588, 142.64198303222656, -30.68269157409668, 9.621955871582031, 
485, 417973116, -106.98871612548828, 48.77989959716797, -136.4313201904297, -8.416719436645508, -1.7890716791152954, -4.389630317687988, 173.74111938476562, -30.946279525756836, 2.2221906185150146, 
486, 417989783, -105.36288452148438, 48.96430206298828, -137.33370971679688, -8.858166694641113, -1.8025906085968018, -3.497556686401367, 140.73170471191406, -25.471338272094727, -4.365948677062988, 
487, 418006450, -103.73332214355469, 48.93898391723633, -138.1839141845703, -9.76385498046875, -1.6742936372756958, -2.488938570022583, 139.03900146484375, -23.286346435546875, -15.685623168945312, 
488, 418023117, -101.96349334716797, 49.086307525634766, -138.46298217773438, -9.667937278747559, -1.4835482835769653, -2.3451433181762695, 122.23110961914062, -45.42853927612305, -9.356844902038574, 
489, 418039784, -100.0167236328125, 49.17875289916992, -138.5402069091797, -9.506481170654297, -1.6780314445495605, -2.560962200164795, 124.34786987304688, -49.75030517578125, -12.450230598449707, 
490, 418056451, -98.08160400390625, 49.314754486083984, -138.33990478515625, -9.502452850341797, -1.6050148010253906, -2.8729166984558105, 111.45843505859375, -59.10491180419922, -10.058539390563965, 
491, 418073118, -95.92283630371094, 49.5161018371582, -137.84207153320312, -8.542828559875488, -1.9454268217086792, -2.915517807006836, 111.7641372680664, -68.9617691040039, -5.957793235778809, 
492, 418089785, -93.6549072265625, 49.68680191040039, -137.3243865966797, -8.402750968933105, -1.9546571969985962, -3.3332037925720215, 117.54212188720703, -67.99044036865234, -5.736618518829346, 
493, 418106452, -91.38965606689453, 49.82687759399414, -136.8961181640625, -8.351897239685059, -2.042832612991333, -3.4794082641601562, 121.66809844970703, -63.16462707519531, -5.34263801574707, 
494, 418123119, -89.36483764648438, 49.93647766113281, -136.66148376464844, -8.39401626586914, -2.030846357345581, -3.6305220127105713, 116.31678771972656, -54.80183792114258, -5.315278053283691, 
495, 418139786, -87.95015716552734, 50.0771598815918, -136.64292907714844, -9.41992473602295, -2.427158832550049, -4.501019477844238, 89.73017883300781, -46.297245025634766, -2.411663055419922, 
496, 418156453, -86.65663146972656, 50.078468322753906, -137.20640563964844, -8.548306465148926, -2.755317211151123, -4.582367897033691, 109.56986999511719, -24.441667556762695, -11.028976440429688, 
497, 418173120, -86.13497924804688, 50.08186340332031, -138.30068969726562, -9.191364288330078, -1.8844722509384155, -3.703436851501465, 87.99026489257812, -4.660724639892578, -11.554215431213379, 
498, 418189787, -86.0694351196289, 50.284141540527344, -139.48309326171875, -9.272546768188477, -1.868933081626892, -3.39263653755188, 65.2856674194336, 0.09834783524274826, 0.33866259455680847, 
499, 418206454, -86.60778045654297, 50.70335006713867, -140.89418029785156, -9.187240600585938, -1.9286526441574097, -3.3300931453704834, 40.36403274536133, 10.553033828735352, 13.007399559020996, 
500, 418223121, -87.71135711669922, 51.305137634277344, -142.50875854492188, -8.81682300567627, -2.094255208969116, -3.1257097721099854, 16.7796688079834, 19.3051815032959, 24.1008358001709, 
501, 418239788, -89.3450927734375, 52.02315902709961, -144.3068389892578, -8.830718040466309, -2.1303443908691406, -2.8535332679748535, -5.421921730041504, 26.35638999938965, 31.90244483947754, 
502, 418256455, -91.2477798461914, 52.79495620727539, -146.16307067871094, -8.656511306762695, -2.2178497314453125, -2.567200183868408, -17.632612228393555, 28.168916702270508, 36.5255012512207, 
503, 418273122, -93.2882308959961, 53.583744049072266, -147.95867919921875, -8.495794296264648, -2.3055543899536133, -2.322831153869629, -27.599000930786133, 25.468048095703125, 38.99594497680664, 
504, 418289789, -95.35702514648438, 54.47174835205078, -149.44322204589844, -10.043174743652344, -3.386110782623291, -2.956433057785034, -43.222450256347656, 13.527389526367188, 45.484962463378906, 
505, 418306456, -97.08245086669922, 54.952125549316406, -151.014892578125, -7.839796543121338, -5.227879047393799, -3.22060227394104, -17.453109741210938, 18.440961837768555, 22.375150680541992, 
506, 418323123, -99.52127838134766, 54.759178161621094, -153.0079803466797, -8.882979393005371, -3.3486313819885254, -2.459754228591919, -39.320499420166016, 38.64496612548828, -13.701020240783691, 
507, 418339790, -101.50628662109375, 54.42985153198242, -154.6619873046875, -9.006428718566895, -2.363480806350708, -2.549940586090088, -28.22500228881836, 31.353099822998047, -21.439760208129883, 
508, 418356457, -103.1728515625, 54.23268127441406, -155.81504821777344, -9.296402931213379, -2.202632188796997, -2.1118597984313965, -32.89220428466797, 15.671792030334473, -15.835848808288574, 
509, 418373124, -105.00886535644531, 54.085105895996094, -156.9468231201172, -8.726337432861328, -2.4648497104644775, -3.1038661003112793, -43.31113815307617, 17.287790298461914, -12.215544700622559, 
510, 418389791, -107.3106460571289, 53.86119079589844, -158.2539520263672, -8.788102149963379, -2.417201519012451, -3.3224616050720215, -62.25128173828125, 26.5310115814209, -13.741935729980469, 
511, 418406458, -108.3084945678711, 52.8111572265625, -158.76876831054688, -8.723487854003906, -4.182293891906738, -1.7547599077224731, -21.87804412841797, 17.189489364624023, -68.26158142089844, 
512, 418423125, -109.48747253417969, 53.93046569824219, -161.41065979003906, -9.731606483459473, 4.9078168869018555, -7.29112434387207, 70.12359619140625, 50.461856842041016, 80.78588104248047, 
513, 418439792, -119.84114837646484, 54.991905212402344, -167.4073486328125, -6.421248912811279, -8.372899055480957, -2.2665605545043945, -313.5648193359375, 145.89491271972656, 130.1209716796875, 
514, 418456459, -113.26677703857422, 49.84203338623047, -165.5157928466797, -10.655879974365234, -4.931131362915039, 1.0121424198150635, 319.0489807128906, 60.477439880371094, -320.9205627441406, 
515, 418473126, -116.02352142333984, 48.49003982543945, -170.29847717285156, -16.800291061401367, 8.42000675201416, -7.400817394256592, 68.42194366455078, 193.27342224121094, -6.987444877624512, 
516, 418489793, -120.21631622314453, 48.833717346191406, -171.8787384033203, -15.108915328979492, 0.2573784589767456, 7.166059970855713, -160.2272491455078, 36.78705596923828, 34.68482208251953, 
517, 418506460, -111.9803237915039, 50.80842208862305, -163.53028869628906, -17.191282272338867, -2.5606801509857178, 6.587327003479004, 132.80308532714844, -341.10821533203125, -49.23869705200195, 
518, 418523127, -99.76014709472656, 54.515594482421875, -153.9561767578125, -17.599979400634766, 6.553379535675049, -3.347780704498291, 297.8121337890625, -387.168701171875, 102.7828140258789, 
519, 418539794, -92.98711395263672, 60.53606414794922, -148.14947509765625, -14.723474502563477, 0.0011069178581237793, -5.572998046875, 135.3080596923828, -218.03091430664062, 318.3341064453125, 
520, 418556461, -82.2903060913086, 67.91941833496094, -136.2864227294922, -22.71855354309082, -9.780102729797363, -12.474777221679688, 21.48894691467285, -287.1820068359375, 431.4634094238281, 
521, 418573128, -94.49897766113281, 64.50659942626953, -151.005859375, 20.061079025268555, -44.274776458740234, -29.74785804748535, 96.23808288574219, 345.8510437011719, -233.6150360107422, 
522, 418589795, -99.43321228027344, 51.97813034057617, -165.50387573242188, -12.468146324157715, 6.5624775886535645, 16.91683006286621, 454.9973449707031, 521.0996704101562, -693.3213500976562, 
523, 418606462, -99.25243377685547, 55.04780197143555, -161.0104217529297, -7.7599077224731445, 21.116573333740234, 12.799766540527344, -191.5224151611328, -198.78562927246094, 146.66079711914062, 
524, 418623129, -103.35501098632812, 57.5373649597168, -155.67398071289062, -8.874526977539062, -12.597503662109375, -10.402667045593262, -493.7176513671875, -201.63201904296875, 98.11134338378906, 
525, 418639796, -106.13357543945312, 55.47193908691406, -155.2796630859375, -9.698101997375488, -1.1201114654541016, -1.3195165395736694, -170.84718322753906, 16.8408145904541, -135.932373046875, 
526, 418656463, -107.93697357177734, 57.75464630126953, -155.88494873046875, -10.014448165893555, 6.300971508026123, -1.5011496543884277, -61.63924789428711, -21.2086181640625, 123.84969329833984, 
527, 418673130, -111.23646545410156, 57.957515716552734, -156.8621826171875, -9.86270523071289, -15.03160572052002, -1.1570457220077515, -130.63926696777344, 26.651945114135742, 7.925938606262207, 
528, 418689797, -107.88766479492188, 56.133934020996094, -152.7450714111328, -10.029019355773926, 4.226287841796875, -1.1614667177200317, 9.524168968200684, -87.81639862060547, -160.25820922851562, 
529, 418706464, -113.93220520019531, 58.8929328918457, -153.68125915527344, -8.804853439331055, -3.1804280281066895, -4.447420120239258, -298.4412536621094, -27.00890350341797, 152.37986755371094, 
530, 418723131, -115.15745544433594, 57.74419403076172, -152.79611206054688, -8.391885757446289, -12.0194730758667, -9.461161613464355, -102.50712585449219, 6.909108638763428, -87.13867950439453, 
531, 418739798, -119.68644714355469, 58.03920364379883, -152.9670867919922, -11.32707405090332, -0.03515128791332245, -3.510732889175415, -249.06178283691406, -1.8376137018203735, 6.323065280914307, 
532, 418756465, -126.56192779541016, 69.74089050292969, -151.31785583496094, -39.56306457519531, -5.2625532150268555, -6.248299598693848, -486.5818176269531, -418.36474609375, 551.841064453125, 
533, 418773132, -116.21974182128906, 75.120849609375, -146.78907775878906, -8.570978164672852, -4.858707427978516, 1.140047311782837, 372.6075744628906, -237.25164794921875, 219.3527374267578, 
534, 418789799, -109.73245239257812, 74.09180450439453, -138.91575622558594, -0.7150126695632935, -5.431778430938721, -3.966388463973999, -56.533775329589844, -91.1630859375, -117.20008850097656, 
535, 418806466, -102.25753021240234, 69.60062408447266, -136.36900329589844, -7.639079570770264, 0.15972310304641724, 1.5153793096542358, 312.0771789550781, 28.324691772460938, -282.6463623046875, 
536, 418823133, -98.49691772460938, 67.0827407836914, -135.6831512451172, -5.527844429016113, 4.722289562225342, -0.854172945022583, 197.08804321289062, 12.769794464111328, -161.45208740234375, 
537, 418839800, -97.85301208496094, 67.42764282226562, -136.25888061523438, -11.398604393005371, 6.361013412475586, -3.5854923725128174, 80.82611083984375, 10.784592628479004, 11.692200660705566, 
538, 418856467, -92.46074676513672, 76.52776336669922, -127.25161743164062, -15.870193481445312, 5.7309417724609375, 7.203157424926758, -181.5848388671875, -216.01158142089844, 515.2589111328125, 
539, 418873134, -60.81940841674805, 82.69053649902344, -94.00096893310547, -10.066924095153809, -6.917959690093994, -7.344548225402832, -57.19148254394531, -262.336181640625, 414.1294250488281, 
540, 418889801, -51.117835998535156, 83.42788696289062, -82.68733215332031, -3.558501958847046, -4.931426048278809, 0.7190533876419067, -83.78824615478516, -43.86648178100586, 70.49400329589844, 
541, 418906468, -53.63247299194336, 81.73851776123047, -87.45296478271484, -8.52096939086914, -2.3356399536132812, -1.453559398651123, 140.98333740234375, -32.46318817138672, -113.700439453125, 
542, 418923135, -63.347896575927734, 80.13333129882812, -97.95838928222656, -13.39026165008545, 1.595526099205017, -1.9341319799423218, 47.47830581665039, 34.21467971801758, -143.89476013183594, 
543, 418939802, -65.43907928466797, 80.39411163330078, -100.6194839477539, -15.846818923950195, 2.948317289352417, -0.641282856464386, 39.12165832519531, 30.098278045654297, -7.659557819366455, 
544, 418956469, -60.71232986450195, 82.03905487060547, -94.45420837402344, -15.359023094177246, 1.048943281173706, -0.9182470440864563, -75.27758026123047, -7.240085124969482, 103.34651947021484, 
545, 418973136, -52.30168914794922, 83.5358657836914, -85.2103042602539, -13.496353149414062, -1.1747795343399048, -0.6146577000617981, -39.608402252197266, -10.492256164550781, 103.15489959716797, 
546, 418989803, -49.532588958740234, 84.0168685913086, -82.04147338867188, -12.00614070892334, -1.7102820873260498, -0.8102294206619263, -17.376026153564453, 0.17699715495109558, 26.065950393676758, 
547, 419006470, -58.208499908447266, 83.89684295654297, -91.58258819580078, -13.644909858703613, -1.1134566068649292, -1.8551647663116455, 53.85441970825195, 42.200626373291016, -49.974491119384766, 
548, 419023137, -64.66629028320312, 85.06639862060547, -96.46994018554688, -17.020126342773438, 1.832034707069397, -1.4366979598999023, -91.02915954589844, 55.72355651855469, 39.93717575073242, 
549, 419039804, -74.28004455566406, 85.26612854003906, -106.00523376464844, -17.23860740661621, -1.916015863418579, -0.3039376437664032, -2.7222042083740234, 46.36654281616211, -13.674988746643066, 
550, 419056471, -77.17542266845703, 84.24848175048828, -107.85083770751953, -18.02167320251465, -0.41292011737823486, -0.2724689245223999, -59.81526565551758, -8.172908782958984, -68.9348373413086, 
551, 419073138, -75.52572631835938, 83.4940414428711, -106.08137512207031, -17.226713180541992, 0.4129657447338104, -1.6751677989959717, -3.38470196723938, -24.718711853027344, -48.09127426147461, 
552, 419089805, -72.71315002441406, 83.2385025024414, -102.7633285522461, -14.180164337158203, 0.26871538162231445, -1.3446248769760132, -26.41746711730957, -29.73811149597168, -14.954401969909668, 
553, 419106472, -72.18968963623047, 83.2383041381836, -102.15990447998047, -10.895452499389648, -0.11852534115314484, -3.0256874561309814, -2.3539998531341553, -7.700677394866943, -5.013853073120117, 
554, 419123139, -84.33265686035156, 83.30368041992188, -113.93738555908203, -9.826334953308105, -0.4268178939819336, -3.676511526107788, -24.92667579650879, 77.72796630859375, -19.189800262451172, 
555, 419139806, -109.91915130615234, 82.3896484375, -138.92416381835938, -11.495857238769531, -0.012739136815071106, -3.224071502685547, -45.6607666015625, 186.06149291992188, -36.31983947753906, 
556, 419156473, -131.5936279296875, 80.23040771484375, -159.80555725097656, -14.248327255249023, 0.10892094671726227, -1.2335057258605957, -59.73126220703125, 222.3800811767578, -19.4775333404541, 
557, 419173140, -143.2129669189453, 77.41307830810547, -170.77450561523438, -15.756714820861816, -0.5408459901809692, -0.4252852201461792, -48.975833892822266, 205.79177856445312, -26.326509475708008, 
558, 419189807, -147.63763427734375, 74.80672454833984, -174.82540893554688, -15.465417861938477, -0.3477872610092163, -0.21408136188983917, -26.662763595581055, 157.93548583984375, -46.61500549316406, 
559, 419206474, -149.88897705078125, 72.53897094726562, -176.6647491455078, -13.979872703552246, 0.3417855501174927, -0.8237913846969604, -25.542695999145508, 129.24270629882812, -49.63167953491211, 
560, 419223141, -153.0854949951172, 70.67387390136719, -179.1350555419922, -13.047868728637695, 0.5250416994094849, -1.7982606887817383, -46.844581604003906, 118.07234954833984, -17.674560546875, 
561, 419239808, -157.5335693359375, 68.25334167480469, 177.4195098876953, -14.045899391174316, 0.2745734453201294, -2.012030839920044, -68.35431671142578, 160.1689910888672, 0.06962275505065918, 
562, 419256475, -161.88809204101562, 65.86974334716797, 174.13352966308594, -15.708136558532715, 0.01343553513288498, -0.7344239950180054, -74.15187072753906, 159.3079833984375, 17.61823844909668, 
563, 419273142, -164.35400390625, 63.51508331298828, 172.23898315429688, -17.294048309326172, -0.7447882890701294, -0.32623857259750366, -38.78864288330078, 148.77584838867188, 1.2130417823791504, 
564, 419289809, -163.07350158691406, 61.631046295166016, 172.88206481933594, -17.320619583129883, -1.5830104351043701, 0.33993998169898987, 49.80952453613281, 104.04165649414062, -52.174072265625, 
565, 419306476, -158.7181396484375, 59.91593551635742, 175.68698120117188, -16.785593032836914, -0.6099971532821655, -0.9041091203689575, 122.50521087646484, 72.05154418945312, -113.74272155761719, 
566, 419323143, -154.81748962402344, 58.11269760131836, 178.3223419189453, -15.76819133758545, 0.6171653866767883, -2.618978261947632, 107.20178985595703, 70.06560516357422, -119.23453521728516, 
567, 419339810, -152.98776245117188, 57.21439743041992, 179.7322540283203, -10.995981216430664, 1.4653512239456177, -0.7992720007896423, 47.55828094482422, 32.02720642089844, -65.82244873046875, 
568, 419356477, -152.67770385742188, 55.98091506958008, -179.92674255371094, -8.323110580444336, 0.09719820320606232, -5.612119197845459, 11.435259819030762, 65.04264068603516, -45.06388854980469, 
569, 419373144, -154.82208251953125, 52.906707763671875, 178.42230224609375, -7.084660053253174, 0.2978127896785736, -4.05255126953125, -38.1185417175293, 195.0961456298828, -31.090673446655273, 
570, 419389811, -158.07322692871094, 47.91460418701172, 175.7083740234375, -8.319055557250977, 0.05027254670858383, -5.264768600463867, -59.26435852050781, 320.2898254394531, -25.240131378173828, 
571, 419406478, -161.62423706054688, 40.76626968383789, 172.91978454589844, -12.64517879486084, 0.0940498411655426, -3.178832769393921, -85.35411071777344, 448.2562255859375, -35.24629592895508, 
572, 419423145, -165.00631713867188, 33.210426330566406, 170.39886474609375, -16.11454963684082, 0.5493853688240051, -1.2004170417785645, -100.6975326538086, 474.2486572265625, -12.712172508239746, 
573, 419439812, -167.86099243164062, 27.099353790283203, 168.02293395996094, -14.431450843811035, 0.5980353355407715, 0.028788506984710693, -87.93235778808594, 392.3057556152344, 37.935089111328125, 
574, 419456479, -169.3479766845703, 22.23781967163086, 165.80697631835938, -6.27362060546875, -0.5321224331855774, -1.0734124183654785, -21.782438278198242, 318.2615051269531, 67.2215805053711, 
575, 419473146, -168.9598388671875, 17.920576095581055, 164.48623657226562, 2.0073657035827637, -2.081526279449463, -2.680711030960083, 62.13020324707031, 277.5025634765625, 32.07291030883789, 
576, 419489813, -165.4242401123047, 11.699677467346191, 164.5833740234375, 6.964900016784668, -4.209415912628174, -6.570037364959717, 221.08697509765625, 371.7140808105469, -80.58871459960938, 
577, 419506480, -160.2303924560547, -0.5283655524253845, 167.1885528564453, 7.459221839904785, -7.21738338470459, -8.675870895385742, 303.87274169921875, 663.3961181640625, -358.75811767578125, 
578, 419523147, -153.0104522705078, -17.936513900756836, 172.3006134033203, -0.9549199342727661, -5.450748443603516, -5.904523849487305, 485.0279541015625, 846.125732421875, -687.961669921875, 
579, 419539814, -147.2580108642578, -38.781070709228516, 178.3760223388672, -13.433793067932129, -1.2277508974075317, -4.924005508422852, 517.9530029296875, 932.6270141601562, -897.8297729492188, 
580, 419556481, -140.95785522460938, -58.25882339477539, -179.3284149169922, -25.978181838989258, 6.669052600860596, -1.4478120803833008, 476.2597961425781, 904.6232299804688, -756.51513671875, 
581, 419573148, -130.77682495117188, -67.91890716552734, 176.7262725830078, -8.171124458312988, 7.558854103088379, 9.87338924407959, 392.4317932128906, 503.72650146484375, -325.6750183105469, 
582, 419589815, -129.20213317871094, -68.04847717285156, -177.14024353027344, 5.665468692779541, 4.504874229431152, 7.88184118270874, 430.0142517089844, -88.87694549560547, -95.4087142944336, 
583, 419606482, -132.30531311035156, -64.68672943115234, -168.26510620117188, 7.060792446136475, 2.2833445072174072, -0.7739248275756836, 297.3330078125, -282.7341613769531, 12.121320724487305, 
584, 419623149, -133.01609802246094, -62.26091003417969, -162.2293701171875, 12.76224422454834, -0.1968739926815033, -2.3471264839172363, 277.697021484375, -207.8270721435547, -3.526789665222168, 
585, 419639816, -134.495361328125, -61.5544319152832, -156.2586669921875, 14.787738800048828, -0.7796438336372375, -3.7723991870880127, 224.38427734375, -142.3852081298828, -86.84507751464844, 
586, 419656483, -136.161865234375, -62.800846099853516, -150.99354553222656, 14.287301063537598, 0.04706187546253204, -4.504875659942627, 177.26116943359375, -42.795223236083984, -158.0735626220703, 
587, 419673150, -137.5485076904297, -65.15430450439453, -148.11001586914062, 10.841618537902832, 1.834859013557434, -4.010913848876953, 70.9883804321289, 57.927162170410156, -152.50538635253906, 
588, 419689817, -138.84971618652344, -67.51631164550781, -147.73451232910156, 6.289953231811523, 2.0836644172668457, -1.3018767833709717, -57.88301086425781, 105.92994689941406, -101.56916046142578, 
589, 419706484, -140.4534912109375, -68.64718627929688, -147.5314483642578, 3.2504677772521973, 1.593259572982788, 1.6132169961929321, -84.84910583496094, 54.76788330078125, -47.53510665893555, 
590, 419723151, -145.5118408203125, -67.58197784423828, -143.9512176513672, 2.522854804992676, 1.2243303060531616, 2.265573740005493, -103.92204284667969, -93.49761199951172, -25.373336791992188, 
591, 419739818, -151.86817932128906, -64.9676284790039, -139.0264434814453, 3.4625296592712402, 1.3394070863723755, 0.18704786896705627, -110.4455795288086, -190.24209594726562, -19.719329833984375, 
592, 419756485, -156.929931640625, -61.5802001953125, -135.7419891357422, 3.255946397781372, 2.022575616836548, -0.5930587649345398, -127.06758117675781, -216.25050354003906, 8.64573860168457, 
593, 419773152, -158.67410278320312, -57.46233367919922, -134.3551025390625, 3.447126865386963, 1.3155317306518555, 0.09886074811220169, -32.00080490112305, -239.5099639892578, 55.38145446777344, 
594, 419789819, -158.19065856933594, -52.10612106323242, -133.6531219482422, 3.2808797359466553, 1.466385006904602, -0.8429861664772034, 64.60269165039062, -302.7457275390625, 96.85661315917969, 
595, 419806486, -156.8013916015625, -46.075035095214844, -134.07225036621094, 3.9166033267974854, 1.2517220973968506, -3.485974073410034, 65.8512191772461, -322.9864196777344, 155.1786651611328, 
596, 419823153, -155.6438751220703, -39.886837005615234, -135.4799346923828, 4.750055313110352, 0.5177600979804993, -4.396340847015381, 13.943148612976074, -309.78851318359375, 207.8108673095703, 
597, 419839820, -155.1963348388672, -33.98814010620117, -137.04331970214844, 5.546698570251465, -0.7341440320014954, -4.823254108428955, -26.75064468383789, -285.6907653808594, 216.99380493164062, 
598, 419856487, -155.2950439453125, -28.69057846069336, -138.11940002441406, 5.472417831420898, -1.375137448310852, -4.729153633117676, -36.23301696777344, -260.8107604980469, 184.78713989257812, 
599, 419873154, -155.7532501220703, -24.324106216430664, -139.05221557617188, 4.121152877807617, -0.9471758604049683, -5.369571208953857, -48.86537170410156, -213.21875, 155.75047302246094, 
600, 419889821, -156.83779907226562, -20.810707092285156, -140.3490753173828, 1.7019565105438232, -0.5614178776741028, -4.707793235778809, -90.95997619628906, -159.89561462402344, 152.103515625, 
601, 419906488, -158.4459991455078, -18.049768447875977, -141.87673950195312, -1.6387180089950562, -0.5874122381210327, -3.157449960708618, -122.78112030029297, -116.11082458496094, 144.60076904296875, 
602, 419923155, -160.25367736816406, -15.32936954498291, -143.22091674804688, -5.112508296966553, -0.6222379803657532, -1.4077832698822021, -127.35523223876953, -121.01434326171875, 131.7384490966797, 
603, 419939822, -161.70179748535156, -11.824134826660156, -143.93972778320312, -7.800654888153076, -0.7699096202850342, 0.010354012250900269, -92.7938003540039, -180.0933837890625, 110.49315643310547, 
604, 419956489, -162.23281860351562, -6.933457374572754, -143.80650329589844, -9.095752716064453, -0.6594635844230652, 0.23879989981651306, -26.444021224975586, -275.5058898925781, 86.2593002319336, 
605, 419973156, -161.83172607421875, -0.7334969639778137, -143.09385681152344, -8.743319511413574, -0.3630674183368683, -0.935015082359314, 31.07212257385254, -360.0413818359375, 77.6767578125, 
606, 419989823, -160.9348907470703, 6.347553253173828, -142.1444091796875, -7.779877185821533, -0.22223985195159912, -2.3366169929504395, 55.491085052490234, -412.9217529296875, 85.53697204589844, 
607, 420006490, -159.66098022460938, 13.799509048461914, -141.17161560058594, -7.16500186920166, -0.42796260118484497, -3.4036636352539062, 71.24901580810547, -431.7428894042969, 100.51728820800781, 
608, 420023157, -158.06015014648438, 21.237512588500977, -139.96290588378906, -7.201129913330078, -0.8501343727111816, -3.8300082683563232, 79.91129302978516, -432.068359375, 100.20454406738281, 
