PacketCounter,SampleTimeFine,Euler_X,Euler_Y,Euler_Z,Acc_X,Acc_Y,Acc_Z,Gyr_X,Gyr_Y,Gyr_Z,
0, 3958586929, 2.0021653175354004, -0.8745017647743225, 105.81258392333984, 0, 0, 0, 0, 0, 0, 
1, 3958603596, 2.0250518321990967, -0.8425917029380798, 105.85628509521484, 0.10555533319711685, 0.37978607416152954, 9.921354293823242, 0.07210615277290344, 0.272922545671463, 0.4343721568584442, 
2, 3958620263, 2.065661668777466, -0.7852399349212646, 105.86128997802734, 0.10298046469688416, 0.34793636202812195, 9.902134895324707, 0.17045891284942627, 0.266340047121048, 0.4548623263835907, 
3, 3958636930, 2.0762550830841064, -0.7313462495803833, 105.97638702392578, 0.1113988608121872, 0.3282707929611206, 9.910371780395508, 0.11391888558864594, 0.29913708567619324, 0.4777984619140625, 
4, 3958653597, 2.064851999282837, -0.6971967220306396, 105.92050170898438, 0.11056560277938843, 0.3075252175331116, 9.914036750793457, 0.11553248763084412, 0.2237333506345749, 0.42373013496398926, 
5, 3958670264, 2.0413029193878174, -0.6743042469024658, 105.98814392089844, 0.15116643905639648, 0.32245972752571106, 9.916793823242188, 0.14257949590682983, 0.24175184965133667, 0.445859432220459, 
6, 3958686931, 2.0222971439361572, -0.6692745089530945, 106.03184509277344, 0.15876193344593048, 0.3402400612831116, 9.924115180969238, 0.19342710077762604, 0.27862775325775146, 0.4229297339916229, 
7, 3958703598, 2.011420965194702, -0.6739866733551025, 106.05892944335938, 0.16260680556297302, 0.3682387173175812, 9.923181533813477, 0.23192937672138214, 0.24908991158008575, 0.3999871015548706, 
8, 3958720265, 2.008200168609619, -0.6822149753570557, 106.07675170898438, 0.13995113968849182, 0.3625054955482483, 9.922243118286133, 0.14425711333751678, 0.276175320148468, 0.3941986560821533, 
9, 3958736932, 2.0087175369262695, -0.6876994967460632, 106.1153564453125, 0.12817126512527466, 0.3391174376010895, 9.92956829071045, 0.13689348101615906, 0.33356061577796936, 0.435985803604126, 
10, 3958753599, 2.0098679065704346, -0.6911415457725525, 106.10195922851562, 0.11718179285526276, 0.3340180516242981, 9.920402526855469, 0.1926138997077942, 0.29254183173179626, 0.4048791229724884, 
11, 3958770266, 2.0107150077819824, -0.6914094090461731, 106.16877746582031, 0.10721469670534134, 0.3290826082229614, 9.917645454406738, 0.20983843505382538, 0.31793683767318726, 0.40653112530708313, 
12, 3958786933, 2.0107719898223877, -0.6886571645736694, 106.16565704345703, 0.10908862948417664, 0.32691898941993713, 9.912141799926758, 0.19678877294063568, 0.3515407145023346, 0.3647055923938751, 
13, 3958803600, 2.0085110664367676, -0.6847569346427917, 106.20491790771484, 0.11453161388635635, 0.35127654671669006, 9.933183670043945, 0.0820118635892868, 0.3368966579437256, 0.3875969648361206, 
14, 3958820267, 2.008427381515503, -0.6804041862487793, 106.2293930053711, 0.1466030478477478, 0.35691264271736145, 9.9039306640625, 0.15000717341899872, 0.32619696855545044, 0.43106815218925476, 
15, 3958836934, 2.0092811584472656, -0.6785854697227478, 106.28567504882812, 0.1337893158197403, 0.3500281572341919, 9.905747413635254, 0.1474459171295166, 0.23602743446826935, 0.4393026530742645, 
16, 3958853601, 2.0105879306793213, -0.6764587759971619, 106.31222534179688, 0.1660611927509308, 0.328403115272522, 9.910386085510254, 0.14828473329544067, 0.26883089542388916, 0.4638843536376953, 
17, 3958870268, 2.0117719173431396, -0.6756563186645508, 106.34459686279297, 0.14703558385372162, 0.33983591198921204, 9.916753768920898, 0.16634806990623474, 0.2581311762332916, 0.4122556149959564, 
18, 3958886935, 2.013888359069824, -0.6753130555152893, 106.36790466308594, 0.13258454203605652, 0.33117491006851196, 9.913983345031738, 0.21797047555446625, 0.2449662834405899, 0.40820878744125366, 
19, 3958903602, 2.0137665271759033, -0.6735295653343201, 106.38480377197266, 0.12465934455394745, 0.35743796825408936, 9.910280227661133, 0.09515758603811264, 0.31556767225265503, 0.3597240149974823, 
20, 3958920269, 2.0143442153930664, -0.6714401245117188, 106.38107299804688, 0.09997990727424622, 0.36051347851753235, 9.915727615356445, 0.10737483948469162, 0.31231483817100525, 0.42941612005233765, 
21, 3958936936, 2.0164270401000977, -0.6694914102554321, 106.39987182617188, 0.10461141169071198, 0.3635503649711609, 9.923056602478027, 0.17207249999046326, 0.2532007396221161, 0.4024459421634674, 
22, 3958953603, 2.017120122909546, -0.6666365265846252, 106.40148162841797, 0.12398353219032288, 0.3383449614048004, 9.925859451293945, 0.06467846035957336, 0.2771614193916321, 0.4678991734981537, 
23, 3958970270, 2.018951177597046, -0.6638688445091248, 106.50069427490234, 0.13878187537193298, 0.3320615887641907, 9.924986839294434, 0.14175988733768463, 0.2647136449813843, 0.410616397857666, 
24, 3958986937, 2.0197951793670654, -0.6604896187782288, 106.51365661621094, 0.1454300433397293, 0.3424933850765228, 9.915828704833984, 0.09587472677230835, 0.3131856918334961, 0.4728296101093292, 
25, 3959003604, 2.020463705062866, -0.6573680639266968, 106.53028106689453, 0.15188153088092804, 0.34089481830596924, 9.920431137084961, 0.08606506884098053, 0.3107140362262726, 0.451507031917572, 
26, 3959020271, 2.0219295024871826, -0.6560706496238708, 106.53621673583984, 0.13734808564186096, 0.3484839200973511, 9.906662940979004, 0.13513898849487305, 0.21470485627651215, 0.38523417711257935, 
27, 3959036938, 2.0231759548187256, -0.6542267203330994, 106.54505920410156, 0.13120388984680176, 0.3360705077648163, 9.919480323791504, 0.11788885295391083, 0.2524963915348053, 0.4859945476055145, 
28, 3959053605, 2.0259270668029785, -0.6517749428749084, 106.5585708618164, 0.1250995397567749, 0.351974219083786, 9.91395092010498, 0.21306563913822174, 0.28426891565322876, 0.44183823466300964, 
29, 3959070272, 2.0272936820983887, -0.6493816375732422, 106.56932830810547, 0.11322973668575287, 0.3324832618236542, 9.927669525146484, 0.12371573597192764, 0.27294811606407166, 0.4302613139152527, 
30, 3959086939, 2.0303142070770264, -0.6471914649009705, 106.56619262695312, 0.10981817543506622, 0.3419712483882904, 9.910257339477539, 0.22866377234458923, 0.2456706017255783, 0.36483368277549744, 
31, 3959103606, 2.0322043895721436, -0.6440666317939758, 106.56205749511719, 0.1366039663553238, 0.34068024158477783, 9.910317420959473, 0.16230125725269318, 0.29172223806381226, 0.4122556149959564, 
32, 3959120273, 2.0348474979400635, -0.6421099901199341, 106.57272338867188, 0.12394799292087555, 0.3521672487258911, 9.910260200500488, 0.20728997886180878, 0.22274723649024963, 0.3754885196685791, 
33, 3959136940, 2.036167621612549, -0.6386597752571106, 106.56925964355469, 0.11974930018186569, 0.3683314621448517, 9.907470703125, 0.12456097453832626, 0.31316012144088745, 0.4736748933792114, 
34, 3959153607, 2.037844181060791, -0.6356841921806335, 106.55338287353516, 0.14073805510997772, 0.34753939509391785, 9.923124313354492, 0.13353820145130157, 0.2778785526752472, 0.44336220622062683, 
35, 3959170274, 2.0409090518951416, -0.6323859691619873, 106.55875396728516, 0.14275504648685455, 0.3396216630935669, 9.90208911895752, 0.21645934879779816, 0.30141663551330566, 0.3893834948539734, 
36, 3959186941, 2.041349172592163, -0.6298829317092896, 106.54736328125, 0.12991288304328918, 0.32566016912460327, 9.915796279907227, 0.06142565980553627, 0.25834888219833374, 0.4121275246143341, 
37, 3959203608, 2.0443828105926514, -0.6263138651847839, 106.54103088378906, 0.1402192860841751, 0.3239217698574066, 9.904851913452148, 0.22471944987773895, 0.3218683898448944, 0.38445302844047546, 
38, 3959220275, 2.0457587242126465, -0.6236675977706909, 106.5257797241211, 0.1164378821849823, 0.3301665484905243, 9.913000106811523, 0.13273140788078308, 0.27050215005874634, 0.42043882608413696, 
39, 3959236942, 2.0486109256744385, -0.6203516125679016, 106.50660705566406, 0.11487135291099548, 0.3461017608642578, 9.910221099853516, 0.22620496153831482, 0.3063598573207855, 0.4598824083805084, 
40, 3959253609, 2.0502891540527344, -0.6161755323410034, 106.48063659667969, 0.11502513289451599, 0.36046382784843445, 9.908357620239258, 0.15347127616405487, 0.35155990719795227, 0.39663824439048767, 
41, 3959270276, 2.0515730381011963, -0.6138799786567688, 106.47413635253906, 0.11031552404165268, 0.349935919046402, 9.913854598999023, 0.1236773207783699, 0.233619824051857, 0.3827369511127472, 
42, 3959286943, 2.053121328353882, -0.610817551612854, 106.47439575195312, 0.1289544552564621, 0.3510691225528717, 9.902009963989258, 0.1391858160495758, 0.2779169976711273, 0.48517492413520813, 
43, 3959303610, 2.0552778244018555, -0.6082624793052673, 106.46640014648438, 0.13726556301116943, 0.3413489758968353, 9.912131309509277, 0.17276406288146973, 0.24747629463672638, 0.4606764614582062, 
44, 3959320277, 2.0561888217926025, -0.6052224040031433, 106.46823120117188, 0.12653325498104095, 0.33729320764541626, 9.903854370117188, 0.09917876869440079, 0.27795541286468506, 0.4105139672756195, 
45, 3959336944, 2.057344675064087, -0.6034135222434998, 106.45012664794922, 0.13033129274845123, 0.34030473232269287, 9.91302490234375, 0.11608316004276276, 0.20583006739616394, 0.46226444840431213, 
46, 3959353611, 2.058091163635254, -0.6002241969108582, 106.44147491455078, 0.13896435499191284, 0.347900927066803, 9.917617797851562, 0.09187915921211243, 0.2869710624217987, 0.3867197334766388, 
47, 3959370278, 2.0590789318084717, -0.5977376103401184, 106.42872619628906, 0.1372690349817276, 0.3499852120876312, 9.917612075805664, 0.10565878450870514, 0.2476043701171875, 0.40645432472229004, 
48, 3959386945, 2.060429334640503, -0.5944926142692566, 106.40452575683594, 0.1401873230934143, 0.33651039004325867, 9.913993835449219, 0.12623858451843262, 0.2975618839263916, 0.43268170952796936, 
49, 3959403612, 2.0612876415252686, -0.5920817255973816, 106.3904037475586, 0.12928356230258942, 0.3360135853290558, 9.918533325195312, 0.09829514473676682, 0.24844962358474731, 0.3974258601665497, 
50, 3959420279, 2.063295602798462, -0.5897364616394043, 106.36339569091797, 0.13582773506641388, 0.3215901553630829, 9.918593406677246, 0.16948562860488892, 0.24581146240234375, 0.45003435015678406, 
51, 3959436946, 2.063884735107422, -0.5866368412971497, 106.33927154541016, 0.12609349191188812, 0.3386131823062897, 9.92400074005127, 0.08856232464313507, 0.29274675250053406, 0.4153803884983063, 
52, 3959453613, 2.065645694732666, -0.5843357443809509, 106.28141021728516, 0.11259707808494568, 0.35448822379112244, 9.919340133666992, 0.16045716404914856, 0.24501748383045197, 0.45331278443336487, 
53, 3959470280, 2.0661258697509766, -0.5811625719070435, 106.26529693603516, 0.12929409742355347, 0.34748899936676025, 9.91576099395752, 0.08112822473049164, 0.2944692373275757, 0.4481453597545624, 
54, 3959486947, 2.067070484161377, -0.5786305665969849, 106.27886199951172, 0.1257108449935913, 0.3440704941749573, 9.917588233947754, 0.1080663651227951, 0.2566712498664856, 0.4367797374725342, 
55, 3959503614, 2.0670671463012695, -0.5758364796638489, 106.270263671875, 0.11855842173099518, 0.3297334611415863, 9.905694007873535, 0.05162879824638367, 0.2707454264163971, 0.4120378792285919, 
56, 3959520281, 2.068012237548828, -0.5727262496948242, 106.27041625976562, 0.11877657473087311, 0.3427043557167053, 9.915746688842773, 0.11064046621322632, 0.2885974943637848, 0.43429532647132874, 
57, 3959536948, 2.0685884952545166, -0.5705716013908386, 106.2923355102539, 0.1391037404537201, 0.3492559790611267, 9.913078308105469, 0.08840863406658173, 0.22962427139282227, 0.39168864488601685, 
58, 3959553615, 2.070155620574951, -0.5675578117370605, 106.2956314086914, 0.13663628697395325, 0.3504364490509033, 9.917646408081055, 0.14684399962425232, 0.2826553285121918, 0.3679840564727783, 
59, 3959570282, 2.0717849731445312, -0.5654639601707458, 106.29194641113281, 0.13867101073265076, 0.3544665277004242, 9.908486366271973, 0.15057066082954407, 0.23192937672138214, 0.44756269454956055, 
60, 3959586949, 2.073190450668335, -0.5617570877075195, 106.28509521484375, 0.13711535930633545, 0.36132925748825073, 9.922194480895996, 0.13381995260715485, 0.33029496669769287, 0.4064159095287323, 
61, 3959603616, 2.075617551803589, -0.5579215288162231, 106.2812728881836, 0.13885676860809326, 0.3506968319416046, 9.924068450927734, 0.19449003040790558, 0.33908650279045105, 0.41641125082969666, 
62, 3959620283, 2.076958417892456, -0.5545229315757751, 106.29224395751953, 0.12597905099391937, 0.3421679437160492, 9.91944408416748, 0.12873584032058716, 0.3172581195831299, 0.4556051194667816, 
63, 3959636950, 2.078012228012085, -0.5519826412200928, 106.29203033447266, 0.14145329594612122, 0.32039955258369446, 9.910439491271973, 0.1112871766090393, 0.265718936920166, 0.46629199385643005, 
64, 3959653617, 2.078562021255493, -0.5493278503417969, 106.28653717041016, 0.1260649859905243, 0.31623005867004395, 9.907625198364258, 0.08520704507827759, 0.27397263050079346, 0.42932644486427307, 
65, 3959670284, 2.079922676086426, -0.5463934540748596, 106.28185272216797, 0.11726383864879608, 0.3412524163722992, 9.909348487854004, 0.13771307468414307, 0.2909538447856903, 0.42942890524864197, 
66, 3959686951, 2.081650972366333, -0.5436533689498901, 106.28446960449219, 0.12378326058387756, 0.34433868527412415, 9.915778160095215, 0.15985527634620667, 0.2777121365070343, 0.40330398082733154, 
67, 3959703618, 2.082975387573242, -0.5414416193962097, 106.2782974243164, 0.1348981112241745, 0.33734363317489624, 9.908536911010742, 0.13517741858959198, 0.24582427740097046, 0.38687342405319214, 
68, 3959720285, 2.0851316452026367, -0.5381889343261719, 106.30309295654297, 0.12028215825557709, 0.31863293051719666, 9.9176664352417, 0.18779870867729187, 0.31040671467781067, 0.42626574635505676, 
69, 3959736952, 2.0858144760131836, -0.5360255837440491, 106.31419372558594, 0.14613443613052368, 0.33447521924972534, 9.913188934326172, 0.10216265171766281, 0.24691280722618103, 0.4703836143016815, 
70, 3959753619, 2.086348533630371, -0.5332058072090149, 106.33145904541016, 0.13911089301109314, 0.35041823983192444, 9.929582595825195, 0.09514477849006653, 0.28782910108566284, 0.41046273708343506, 
71, 3959770286, 2.087998390197754, -0.5295383930206299, 106.35308837890625, 0.14564819633960724, 0.34693145751953125, 9.922319412231445, 0.16151368618011475, 0.3434150815010071, 0.5023931264877319, 
72, 3959786953, 2.090135097503662, -0.5272706747055054, 106.36648559570312, 0.13478367030620575, 0.3575170338153839, 9.913987159729004, 0.18998859822750092, 0.2604235112667084, 0.44848474860191345, 
73, 3959803620, 2.092331647872925, -0.5247852206230164, 106.36373138427734, 0.128528892993927, 0.35260331630706787, 9.913961410522461, 0.19185833632946014, 0.27344757318496704, 0.38944748044013977, 
74, 3959820287, 2.0931684970855713, -0.5214625597000122, 106.37871551513672, 0.12587176263332367, 0.33756178617477417, 9.903007507324219, 0.11015380918979645, 0.3238149583339691, 0.38586172461509705, 
75, 3959836954, 2.0935428142547607, -0.5195595026016235, 106.37953186035156, 0.11921278387308121, 0.3270188271999359, 9.930468559265137, 0.08263297379016876, 0.2403687983751297, 0.40719708800315857, 
76, 3959853621, 2.0955708026885986, -0.5158700346946716, 106.3808364868164, 0.11871577799320221, 0.3372792601585388, 9.920367240905762, 0.1847763955593109, 0.347263365983963, 0.40736356377601624, 
77, 3959870288, 2.0968120098114014, -0.5126716494560242, 106.38604736328125, 0.1240336000919342, 0.32492345571517944, 9.921360969543457, 0.1386607438325882, 0.31966570019721985, 0.43512770533561707, 
78, 3959886955, 2.0990664958953857, -0.51060950756073, 106.40242004394531, 0.12808185815811157, 0.3480829894542694, 9.901169776916504, 0.20234674215316772, 0.2504473924636841, 0.4051225185394287, 
79, 3959903622, 2.100717782974243, -0.5095875263214111, 106.3999252319336, 0.1191987469792366, 0.3569986820220947, 9.908404350280762, 0.1651955246925354, 0.18914340436458588, 0.39527443051338196, 
80, 3959920289, 2.100640296936035, -0.5066806674003601, 106.41317749023438, 0.12513864040374756, 0.36013123393058777, 9.906598091125488, 0.06086217612028122, 0.3019545078277588, 0.3906256854534149, 
81, 3959936956, 2.101820945739746, -0.501766562461853, 106.41867065429688, 0.1424512267112732, 0.3555971384048462, 9.925045013427734, 0.13516461849212646, 0.4245752990245819, 0.4201827347278595, 
82, 3959953623, 2.1027493476867676, -0.4991624057292938, 106.42124938964844, 0.1428229957818985, 0.32572096586227417, 9.919672966003418, 0.11898379027843475, 0.288539856672287, 0.3883909285068512, 
83, 3959970290, 2.1030826568603516, -0.49684178829193115, 106.42091369628906, 0.13946126401424408, 0.3370321989059448, 9.910460472106934, 0.08676301687955856, 0.2748754918575287, 0.44404736161231995, 
84, 3959986957, 2.1070594787597656, -0.4930106997489929, 106.42586517333984, 0.11632294952869415, 0.34461724758148193, 9.849859237670898, 0.30538660287857056, 0.36792001128196716, 0.41266539692878723, 
85, 3960003624, 2.108792781829834, -0.4909173846244812, 106.43228912353516, 0.0999692976474762, 0.3846389651298523, 10.006145477294922, 0.17204689979553223, 0.2629079520702362, 0.4115768373012543, 
86, 3960020291, 2.1096279621124268, -0.48820817470550537, 106.44071960449219, 0.11536844819784164, 0.3690324127674103, 9.904685020446777, 0.11553248018026352, 0.3009812533855438, 0.4588450789451599, 
87, 3960036958, 2.111215353012085, -0.4850529730319977, 106.44072723388672, 0.13418662548065186, 0.3298017978668213, 9.9150390625, 0.1576397716999054, 0.32690125703811646, 0.4089515507221222, 
88, 3960053625, 2.113424062728882, -0.4837385416030884, 106.42310333251953, 0.15164192020893097, 0.3290969133377075, 9.906938552856445, 0.19637897610664368, 0.21848271787166595, 0.41011694073677063, 
89, 3960070292, 2.115370512008667, -0.48271918296813965, 106.41087341308594, 0.13550248742103577, 0.3344147205352783, 9.912287712097168, 0.18340612947940826, 0.20206499099731445, 0.34944042563438416, 
90, 3960086959, 2.116877317428589, -0.4804210066795349, 106.4105453491211, 0.1280389428138733, 0.36150091886520386, 9.897479057312012, 0.15892040729522705, 0.2843330204486847, 0.4475499391555786, 
91, 3960103626, 2.118415117263794, -0.47854381799697876, 106.38691711425781, 0.12786372005939484, 0.35380491614341736, 9.926803588867188, 0.15976561605930328, 0.25968074798583984, 0.4025227725505829, 
92, 3960120293, 2.1192586421966553, -0.4774658679962158, 106.38516998291016, 0.136385977268219, 0.342143177986145, 9.899446487426758, 0.11961770802736282, 0.21839307248592377, 0.5557122826576233, 
93, 3960136960, 2.1208410263061523, -0.47568708658218384, 106.36801147460938, 0.13150808215141296, 0.30784380435943604, 9.93067741394043, 0.16271106898784637, 0.2606284022331238, 0.49267953634262085, 
94, 3960153627, 2.1230390071868896, -0.47370100021362305, 106.3595962524414, 0.1265333592891693, 0.3229207992553711, 9.912270545959473, 0.2048695683479309, 0.27253830432891846, 0.4190685451030731, 
95, 3960170294, 2.123892068862915, -0.4712609648704529, 106.33931732177734, 0.10833390057086945, 0.3228095769882202, 9.918539047241211, 0.12545739114284515, 0.3025692105293274, 0.44164615869522095, 
96, 3960186961, 2.12498140335083, -0.4693506956100464, 106.32482147216797, 0.10323437303304672, 0.34884828329086304, 9.9183931350708, 0.1418367177248001, 0.26876044273376465, 0.39177823066711426, 
97, 3960203628, 2.1266560554504395, -0.4675538241863251, 106.31832885742188, 0.11814000457525253, 0.3545415997505188, 9.916658401489258, 0.17860376834869385, 0.2620115280151367, 0.4140613377094269, 
98, 3960220295, 2.1291520595550537, -0.4656071066856384, 106.30084228515625, 0.12281053513288498, 0.3522707223892212, 9.926774978637695, 0.22728070616722107, 0.26977217197418213, 0.3454064726829529, 
99, 3960236962, 2.1304783821105957, -0.4624805450439453, 106.27259826660156, 0.13679726421833038, 0.35453128814697266, 9.918636322021484, 0.1568073332309723, 0.34585466980934143, 0.45970311760902405, 
100, 3960253629, 2.1305887699127197, -0.4612487554550171, 106.25214385986328, 0.14954616129398346, 0.34191370010375977, 9.90323543548584, 0.08406727761030197, 0.23479799926280975, 0.435870498418808, 
101, 3960270296, 2.1322131156921387, -0.45965471863746643, 106.23836517333984, 0.1617838442325592, 0.35023558139801025, 9.908798217773438, 0.1769261360168457, 0.25877150893211365, 0.4148937463760376, 
102, 3960286963, 2.1337101459503174, -0.457095205783844, 106.23658752441406, 0.14339497685432434, 0.3382015526294708, 9.925187110900879, 0.1698954552412033, 0.32111284136772156, 0.4294801950454712, 
103, 3960303630, 2.135321617126465, -0.4551144540309906, 106.22756958007812, 0.13248078525066376, 0.341545969247818, 9.924164772033691, 0.1779250055551529, 0.28908413648605347, 0.4181080758571625, 
104, 3960320297, 2.136744260787964, -0.45391783118247986, 106.21001434326172, 0.11626249551773071, 0.3504718840122223, 9.920331001281738, 0.16853797435760498, 0.2457474321126938, 0.4386494755744934, 
105, 3960336964, 2.1384999752044678, -0.4521174430847168, 106.20271301269531, 0.11001505702733994, 0.33631399273872375, 9.90843677520752, 0.18790115416049957, 0.2799147963523865, 0.37309375405311584, 
106, 3960353631, 2.139657974243164, -0.4503408372402191, 106.2051773071289, 0.11754635721445084, 0.34868019819259644, 9.919429779052734, 0.15565480291843414, 0.2810801863670349, 0.43770185112953186, 
107, 3960370298, 2.1407716274261475, -0.4496142864227295, 106.20484924316406, 0.1065530925989151, 0.3299802243709564, 9.90843677520752, 0.15265808999538422, 0.22051893174648285, 0.47225332260131836, 
108, 3960386965, 2.1411430835723877, -0.4491383135318756, 106.2033920288086, 0.13339610397815704, 0.3420320451259613, 9.929678916931152, 0.11146647483110428, 0.20693783462047577, 0.4983462989330292, 
109, 3960403632, 2.141829013824463, -0.4472302198410034, 106.1947250366211, 0.12678369879722595, 0.35145893692970276, 9.904852867126465, 0.12993964552879333, 0.2892122268676758, 0.3367493748664856, 
110, 3960420299, 2.142916202545166, -0.44622570276260376, 106.19087982177734, 0.1506548821926117, 0.34874099493026733, 9.906001091003418, 0.15527060627937317, 0.2409835159778595, 0.4648513197898865, 
111, 3960436966, 2.1446354389190674, -0.44488853216171265, 106.2022476196289, 0.1332385092973709, 0.3347970247268677, 9.915989875793457, 0.1947525590658188, 0.26531553268432617, 0.47317540645599365, 
112, 3960453633, 2.145190954208374, -0.44267213344573975, 106.20282745361328, 0.13636793196201324, 0.34441378712654114, 9.90955924987793, 0.12559828162193298, 0.3198322057723999, 0.445680171251297, 
113, 3960470300, 2.1442677974700928, -0.4415014982223511, 106.2045669555664, 0.12690886855125427, 0.32476967573165894, 9.915992736816406, 0.03851509466767311, 0.2571963369846344, 0.3937760293483734, 
114, 3960486967, 2.145447254180908, -0.44050338864326477, 106.20165252685547, 0.12684433162212372, 0.31762054562568665, 9.934348106384277, 0.16639289259910583, 0.2480589747428894, 0.3739069700241089, 
115, 3960503634, 2.146437168121338, -0.4394350051879883, 106.21851348876953, 0.11095898598432541, 0.33379602432250977, 9.919472694396973, 0.1597336083650589, 0.25474390387535095, 0.40418121218681335, 
116, 3960520301, 2.1469264030456543, -0.4373493790626526, 106.21539306640625, 0.10129979997873306, 0.35180261731147766, 9.925703048706055, 0.12983717024326324, 0.3180905282497406, 0.41371554136276245, 
117, 3960536968, 2.1493446826934814, -0.4354131519794464, 106.24291229248047, 0.11693809181451797, 0.34175631403923035, 9.90667724609375, 0.24755313992500305, 0.30997130274772644, 0.46185457706451416, 
118, 3960553635, 2.1503233909606934, -0.4336817264556885, 106.24311065673828, 0.1273237019777298, 0.37076330184936523, 9.924029350280762, 0.1609629988670349, 0.29729941487312317, 0.3844209909439087, 
119, 3960570302, 1.9800355434417725, -0.7476835250854492, 106.16470336914062, 0.13280239701271057, 0.3517983555793762, 9.905867576599121, 0.06927595287561417, 0.22347721457481384, 0.4169427454471588, 
120, 3960586969, 1.9799623489379883, -0.7466937899589539, 106.16687774658203, 0.14026254415512085, 0.34088438749313354, 9.9078369140625, 0.1402103155851364, 0.334200918674469, 0.3301413059234619, 
121, 3960603636, 1.9822607040405273, -0.7468256950378418, 106.17053985595703, 0.1343906670808792, 0.3304668962955475, 9.927990913391113, 0.28403839468955994, 0.27202606201171875, 0.4842657148838043, 
122, 3960620303, 1.98166823387146, -0.7453843951225281, 106.17115020751953, 0.1396079808473587, 0.3475465476512909, 9.906881332397461, 0.1111270934343338, 0.3650769889354706, 0.4552977383136749, 
123, 3960636970, 1.980597734451294, -0.7449433207511902, 106.17802429199219, 0.1119888573884964, 0.35198068618774414, 9.918502807617188, 0.08071202039718628, 0.3036321699619293, 0.3807263970375061, 
124, 3960653637, 1.9808447360992432, -0.74554443359375, 106.17869567871094, 0.11311901360750198, 0.35671594738960266, 9.912091255187988, 0.16046996414661407, 0.2407657653093338, 0.3944035470485687, 
125, 3960670304, 1.981774091720581, -0.7450457215309143, 106.1846923828125, 0.11122362315654755, 0.3416636884212494, 9.920392036437988, 0.20030412077903748, 0.30687853693962097, 0.4042836129665375, 
126, 3960686971, 1.9822195768356323, -0.7449439167976379, 106.18901824951172, 0.13498413562774658, 0.3299018442630768, 9.913382530212402, 0.17210452258586884, 0.28340449929237366, 0.4336870014667511, 
127, 3960703638, 1.9823174476623535, -0.744379460811615, 106.19172668457031, 0.12852531671524048, 0.3204174339771271, 9.916118621826172, 0.15187691152095795, 0.3105732202529907, 0.4187484085559845, 
128, 3960720305, 1.9823499917984009, -0.7428411841392517, 106.19468688964844, 0.15572579205036163, 0.35700514912605286, 9.915287017822266, 0.14749713242053986, 0.3687652349472046, 0.40546825528144836, 
129, 3960736972, 1.9829057455062866, -0.7433152198791504, 106.20087432861328, 0.14900605380535126, 0.3354622721672058, 9.901619911193848, 0.18006367981433868, 0.24971739947795868, 0.42480581998825073, 
130, 3960753639, 1.9836336374282837, -0.7434802651405334, 106.20446014404297, 0.13365359604358673, 0.3509761393070221, 9.926092147827148, 0.18918177485466003, 0.2693239152431488, 0.43218228220939636, 
131, 3960770306, 1.984145164489746, -0.7434033751487732, 106.20700073242188, 0.13131117820739746, 0.35788893699645996, 9.915045738220215, 0.17699015140533447, 0.28335967659950256, 0.437010258436203, 
132, 3960786973, 1.9851351976394653, -0.7445749044418335, 106.20884704589844, 0.12230271100997925, 0.3502000868320465, 9.902174949645996, 0.20581085979938507, 0.20943506062030792, 0.4537802040576935, 
133, 3960803640, 1.9850355386734009, -0.7448656558990479, 106.21208953857422, 0.12892957031726837, 0.3414994776248932, 9.901381492614746, 0.13850708305835724, 0.25979605317115784, 0.39423707127571106, 
134, 3960820307, 1.9848521947860718, -0.7458304762840271, 106.21339416503906, 0.11674512922763824, 0.3201632797718048, 9.912363052368164, 0.13463956117630005, 0.22062137722969055, 0.43940505385398865, 
135, 3960836974, 1.9870569705963135, -0.7456516623497009, 106.21440124511719, 0.11353743076324463, 0.3306739926338196, 9.915932655334473, 0.2774367332458496, 0.28725922107696533, 0.36213797330856323, 
136, 3960853641, 1.9872634410858154, -0.7456642389297485, 106.21443939208984, 0.12016753107309341, 0.3451394736766815, 9.92781925201416, 0.15897801518440247, 0.2769373059272766, 0.4246329069137573, 
137, 3960870308, 1.9887374639511108, -0.7455679774284363, 106.21743774414062, 0.13130760192871094, 0.3481545150279999, 9.932504653930664, 0.23510536551475525, 0.28457629680633545, 0.45372259616851807, 
138, 3960886975, 1.9874203205108643, -0.7451665997505188, 106.2197036743164, 0.16646887362003326, 0.3462233543395996, 9.908193588256836, 0.06717570871114731, 0.30242833495140076, 0.4617265462875366, 
139, 3960903642, 1.987837314605713, -0.7455574870109558, 106.2197036743164, 0.13504831492900848, 0.33511924743652344, 9.92440414428711, 0.1711248755455017, 0.2554931044578552, 0.41821059584617615, 
140, 3960920309, 1.989461064338684, -0.7456965446472168, 106.21661376953125, 0.1281784176826477, 0.3328090012073517, 9.89962100982666, 0.24364720284938812, 0.2678256034851074, 0.3661142885684967, 
141, 3960936976, 1.9890145063400269, -0.7451276779174805, 106.21761322021484, 0.12725219130516052, 0.32897889614105225, 9.908798217773438, 0.11910545080900192, 0.31253254413604736, 0.42675232887268066, 
142, 3960953643, 1.9896080493927002, -0.7438065409660339, 106.22006225585938, 0.11766056716442108, 0.35880759358406067, 9.916744232177734, 0.18325884640216827, 0.359627902507782, 0.46059316396713257, 
143, 3960970310, 1.9902130365371704, -0.742875874042511, 106.22074127197266, 0.10838411748409271, 0.35764575004577637, 9.918485641479492, 0.18251608312129974, 0.3332468271255493, 0.4073699712753296, 
144, 3960986977, 1.9912251234054565, -0.7431880235671997, 106.22271728515625, 0.10275542736053467, 0.34722498059272766, 9.912996292114258, 0.2077830284833908, 0.26107025146484375, 0.4626806080341339, 
145, 3961003644, 1.990706443786621, -0.7441425919532776, 106.21914672851562, 0.13961870968341827, 0.34341245889663696, 9.904298782348633, 0.11491136997938156, 0.22003869712352753, 0.4425874352455139, 
146, 3961020311, 1.9917365312576294, -0.7437079548835754, 106.21829986572266, 0.12201989442110062, 0.3249051570892334, 9.919783592224121, 0.2094862461090088, 0.3071218729019165, 0.5190925598144531, 
147, 3961036978, 1.992360234260559, -0.744430422782898, 106.21808624267578, 0.14379571378231049, 0.3469243049621582, 9.899764060974121, 0.18465475738048553, 0.2350221425294876, 0.45361366868019104, 
148, 3961053645, 1.9923794269561768, -0.7450599074363708, 106.2137222290039, 0.1418432593345642, 0.33842387795448303, 9.919022560119629, 0.14665190875530243, 0.23837098479270935, 0.36975133419036865, 
149, 3961070312, 1.9928127527236938, -0.7446075677871704, 106.2125473022461, 0.14005142450332642, 0.3643869161605835, 9.90144157409668, 0.1724759340286255, 0.30463746190071106, 0.4041427969932556, 
150, 3961086979, 1.9927747249603271, -0.7456827759742737, 106.20985412597656, 0.1424868255853653, 0.3511406481266022, 9.912552833557129, 0.1443147510290146, 0.21487772464752197, 0.45015600323677063, 
151, 3961103646, 1.9924323558807373, -0.7455124258995056, 106.20138549804688, 0.11920929700136185, 0.35186660289764404, 9.897618293762207, 0.12498997151851654, 0.2869134247303009, 0.3661847412586212, 
152, 3961120313, 1.9938114881515503, -0.7453669309616089, 106.19806671142578, 0.12690171599388123, 0.3255922198295593, 9.911633491516113, 0.22795940935611725, 0.2869454622268677, 0.42011868953704834, 
153, 3961136980, 1.9957880973815918, -0.7458596229553223, 106.19538879394531, 0.12137290090322495, 0.32178711891174316, 9.918006896972656, 0.26458558440208435, 0.24716894328594208, 0.39833512902259827, 
154, 3961153647, 1.995663046836853, -0.7460905313491821, 106.18682098388672, 0.12624384462833405, 0.3242478668689728, 9.916215896606445, 0.13928185403347015, 0.2639900743961334, 0.40979036688804626, 
155, 3961170314, 1.9952336549758911, -0.7464853525161743, 106.18360137939453, 0.12506698071956635, 0.35030707716941833, 9.918771743774414, 0.12162831425666809, 0.2561461925506592, 0.4646207392215729, 
156, 3961186981, 1.9955525398254395, -0.7466263771057129, 106.17940521240234, 0.13805590569972992, 0.34299761056900024, 9.911669731140137, 0.16640570759773254, 0.26861315965652466, 0.4042196273803711, 
157, 3961203648, 1.9957929849624634, -0.7474232912063599, 106.17436981201172, 0.1437814086675644, 0.3544093072414398, 9.92448616027832, 0.1615777313709259, 0.23116743564605713, 0.4600553512573242, 
158, 3961220315, 1.996758222579956, -0.7482566833496094, 106.16901397705078, 0.12960532307624817, 0.3513301908969879, 9.90510368347168, 0.20437653362751007, 0.2289775311946869, 0.4291919767856598, 
159, 3961236982, 1.9966378211975098, -0.7490627765655518, 106.166015625, 0.1306246966123581, 0.3491990566253662, 9.916122436523438, 0.1397300809621811, 0.2295922189950943, 0.4164752662181854, 
160, 3961253649, 1.997764229774475, -0.7498289346694946, 106.1614990234375, 0.1417861431837082, 0.33923569321632385, 9.909931182861328, 0.21416699886322021, 0.233030766248703, 0.44318297505378723, 
161, 3961270316, 1.9975063800811768, -0.7510167360305786, 106.15792846679688, 0.11472473293542862, 0.3458549976348877, 9.909534454345703, 0.13252010941505432, 0.20942221581935883, 0.48452818393707275, 
162, 3961286983, 1.9990309476852417, -0.7511268258094788, 106.15450286865234, 0.12066123634576797, 0.34974950551986694, 9.908672332763672, 0.23819807171821594, 0.2738637626171112, 0.4669578969478607, 
163, 3961303650, 1.9979170560836792, -0.7509500980377197, 106.1497802734375, 0.13071760535240173, 0.3410453796386719, 9.908869743347168, 0.08035983890295029, 0.2884629964828491, 0.4338919222354889, 
164, 3961320317, 1.9985392093658447, -0.7503826022148132, 106.14790344238281, 0.12620793282985687, 0.34228596091270447, 9.914304733276367, 0.18323324620723724, 0.3118986487388611, 0.40826642513275146, 
165, 3961336984, 1.998038411140442, -0.7501024007797241, 106.14268493652344, 0.12812834978103638, 0.3501357138156891, 9.923439025878906, 0.11738299578428268, 0.29542967677116394, 0.42428717017173767, 
166, 3961353651, 1.9973074197769165, -0.7506832480430603, 106.14061737060547, 0.1425047069787979, 0.32905399799346924, 9.919222831726074, 0.10343047976493835, 0.24491503834724426, 0.47190752625465393, 
167, 3961370318, 1.9963810443878174, -0.7514883875846863, 106.13786315917969, 0.14411042630672455, 0.3466453552246094, 9.913629531860352, 0.09108515828847885, 0.23105855286121368, 0.4562966227531433, 
168, 3961386985, 1.9964250326156616, -0.7511986494064331, 106.13626861572266, 0.1380666345357895, 0.35159480571746826, 9.915352821350098, 0.15016084909439087, 0.2959098815917969, 0.4269444942474365, 
169, 3961403652, 1.9963200092315674, -0.7508309483528137, 106.1296157836914, 0.12073620408773422, 0.35886847972869873, 9.928805351257324, 0.13925623893737793, 0.29819583892822266, 0.3481918275356293, 
170, 3961420319, 1.9967228174209595, -0.7499535083770752, 106.12967681884766, 0.12532103061676025, 0.3573310673236847, 9.931635856628418, 0.1714642196893692, 0.3336182236671448, 0.48761457204818726, 
171, 3961436986, 1.9964393377304077, -0.7506290674209595, 106.12760925292969, 0.13874253630638123, 0.3345184326171875, 9.919194221496582, 0.12903037667274475, 0.23794837296009064, 0.43111932277679443, 
172, 3961453653, 1.9956263303756714, -0.7505637407302856, 106.12715911865234, 0.12453415244817734, 0.33692488074302673, 9.909828186035156, 0.09823751449584961, 0.28344297409057617, 0.4504121243953705, 
173, 3961470320, 1.9952974319458008, -0.7510494589805603, 106.12569427490234, 0.13364644348621368, 0.34356266260147095, 9.932808876037598, 0.12743598222732544, 0.2494932860136032, 0.4433686137199402, 
174, 3961486987, 1.9947049617767334, -0.7512561082839966, 106.12740325927734, 0.13326391577720642, 0.3446787893772125, 9.913576126098633, 0.11131919175386429, 0.26681390404701233, 0.4276232123374939, 
175, 3961503654, 1.9945358037948608, -0.7504516243934631, 106.1257095336914, 0.1279890090227127, 0.34876638650894165, 9.917141914367676, 0.13538232445716858, 0.32448089122772217, 0.36033865809440613, 
176, 3961520321, 1.9947680234909058, -0.7503120303153992, 106.12455749511719, 0.1363142877817154, 0.3452005684375763, 9.906311988830566, 0.16077730059623718, 0.2867405414581299, 0.4205028712749481, 
177, 3961536988, 1.9955663681030273, -0.749922513961792, 106.12557983398438, 0.1355057954788208, 0.3475103974342346, 9.910872459411621, 0.19557854533195496, 0.30473989248275757, 0.5108453035354614, 
178, 3961553655, 1.9959375858306885, -0.7497302293777466, 106.1245346069336, 0.1315295249223709, 0.3400082290172577, 9.926445960998535, 0.16893495619297028, 0.2908001244068146, 0.43122178316116333, 
179, 3961570322, 1.9958858489990234, -0.7508585453033447, 106.1258544921875, 0.1386638581752777, 0.3538728654384613, 9.905389785766602, 0.14330945909023285, 0.21164412796497345, 0.45347920060157776, 
180, 3961586989, 1.9951499700546265, -0.7507781386375427, 106.13105010986328, 0.1333281546831131, 0.3433588147163391, 9.901741981506348, 0.10264289379119873, 0.2832636535167694, 0.4086378216743469, 
181, 3961603656, 1.994877576828003, -0.7518051266670227, 106.13142395019531, 0.12768490612506866, 0.33555909991264343, 9.909062385559082, 0.13024696707725525, 0.21835465729236603, 0.4549775719642639, 
182, 3961620323, 1.9952995777130127, -0.7522403597831726, 106.13775634765625, 0.1279318481683731, 0.33687543869018555, 9.916387557983398, 0.17198285460472107, 0.25211217999458313, 0.4059804677963257, 
183, 3961636990, 1.9955838918685913, -0.751859724521637, 106.14114379882812, 0.11823298782110214, 0.3504611551761627, 9.926210403442383, 0.16451674699783325, 0.30423402786254883, 0.49915945529937744, 
184, 3961653657, 1.9952150583267212, -0.7515873908996582, 106.146728515625, 0.13553109765052795, 0.3246481120586395, 9.899224281311035, 0.12532934546470642, 0.29633253812789917, 0.464479923248291, 
185, 3961670324, 1.9944583177566528, -0.7512928247451782, 106.1473388671875, 0.13208721578121185, 0.338895708322525, 9.912802696228027, 0.10229070484638214, 0.2982918620109558, 0.4798602759838104, 
186, 3961686991, 1.996000051498413, -0.7511104345321655, 106.15180969238281, 0.13250920176506042, 0.3528786897659302, 9.91270637512207, 0.23931224644184113, 0.29003819823265076, 0.4506169855594635, 
187, 3961703658, 1.996115803718567, -0.7513545155525208, 106.15286254882812, 0.1287255883216858, 0.3454115688800812, 9.916376113891602, 0.15455983579158783, 0.26482251286506653, 0.45253798365592957, 
188, 3961720325, 1.9950133562088013, -0.7508370876312256, 106.15597534179688, 0.12523877620697021, 0.3412810266017914, 9.910879135131836, 0.0799628496170044, 0.30981117486953735, 0.4165392816066742, 
189, 3961736992, 1.9955220222473145, -0.750070333480835, 106.15721130371094, 0.1406736969947815, 0.33750098943710327, 9.917570114135742, 0.17760485410690308, 0.32506993412971497, 0.42542052268981934, 
190, 3961753659, 1.9969431161880493, -0.7501776814460754, 106.1632080078125, 0.12434830516576767, 0.3364388644695282, 9.90635871887207, 0.23198699951171875, 0.2710847854614258, 0.41213393211364746, 
191, 3961770326, 1.998273491859436, -0.7504342794418335, 106.16399383544922, 0.1188519299030304, 0.33822721242904663, 9.919075965881348, 0.22696691751480103, 0.26297837495803833, 0.4137731194496155, 
192, 3961786993, 1.9985665082931519, -0.7496022582054138, 106.1656265258789, 0.12905101478099823, 0.3358595073223114, 9.919261932373047, 0.1650802344083786, 0.3303205370903015, 0.4646335542201996, 
193, 3961803660, 1.9993155002593994, -0.7491340637207031, 106.16508483886719, 0.1210760772228241, 0.34098780155181885, 9.90994930267334, 0.1914421170949936, 0.3060077428817749, 0.4108533263206482, 
194, 3961820327, 2.0008299350738525, -0.7496164441108704, 106.16998291015625, 0.13836704194545746, 0.34488943219184875, 9.926678657531738, 0.23864629864692688, 0.2516063451766968, 0.4745776653289795, 
195, 3961836994, 2.0017588138580322, -0.7503238916397095, 106.17237091064453, 0.13494843244552612, 0.3363496959209442, 9.912052154541016, 0.20402435958385468, 0.23726965487003326, 0.4759927988052368, 
196, 3961853661, 2.0024118423461914, -0.7504268884658813, 106.1734390258789, 0.1342581808567047, 0.34251511096954346, 9.92388916015625, 0.1860634684562683, 0.27250635623931885, 0.42079105973243713, 
197, 3961870328, 2.003020763397217, -0.7498604655265808, 106.17529296875, 0.12937310338020325, 0.35125187039375305, 9.90909481048584, 0.18446263670921326, 0.3145879805088043, 0.4779713749885559, 
198, 3961886995, 2.003551959991455, -0.749816358089447, 106.17803192138672, 0.12842518091201782, 0.3518165349960327, 9.914580345153809, 0.17898793518543243, 0.2798251509666443, 0.39199593663215637, 
199, 3961903662, 2.0032296180725098, -0.7492955327033997, 106.18135070800781, 0.11673098057508469, 0.3599846065044403, 9.92257022857666, 0.12740397453308105, 0.3101505935192108, 0.4299796223640442, 
200, 3961920329, 2.002866506576538, -0.7491263747215271, 106.18177795410156, 0.1321873515844345, 0.34981387853622437, 9.917434692382812, 0.1254637986421585, 0.28889843821525574, 0.43661966919898987, 
201, 3961936996, 2.0033750534057617, -0.7489445209503174, 106.18321990966797, 0.12175197899341583, 0.3311782479286194, 9.918364524841309, 0.17855894565582275, 0.29083219170570374, 0.4641021192073822, 
202, 3961953663, 2.003748893737793, -0.748903214931488, 106.18280792236328, 0.13118942081928253, 0.33224719762802124, 9.909358024597168, 0.1691654771566391, 0.2791335880756378, 0.3886534869670868, 
203, 3961970330, 2.0047261714935303, -0.7499382495880127, 106.18314361572266, 0.1405056118965149, 0.3343181610107422, 9.911336898803711, 0.20568278431892395, 0.21659378707408905, 0.4384254217147827, 
204, 3961986997, 2.0039427280426025, -0.7490469813346863, 106.18240356445312, 0.14515815675258636, 0.34739598631858826, 9.891144752502441, 0.09951172769069672, 0.3307431936264038, 0.3681633472442627, 
205, 3962003664, 2.004986047744751, -0.7486596703529358, 106.18254089355469, 0.1353704035282135, 0.35103365778923035, 9.934013366699219, 0.2101585865020752, 0.30169835686683655, 0.42250072956085205, 
206, 3962020331, 2.0041303634643555, -0.7484694123268127, 106.18621826171875, 0.13385744392871857, 0.34872668981552124, 9.915706634521484, 0.09635498374700546, 0.2920103967189789, 0.49044477939605713, 
207, 3962036998, 2.005162239074707, -0.748303234577179, 106.18161010742188, 0.13369981944561005, 0.345407634973526, 9.926739692687988, 0.20974238216876984, 0.2895643413066864, 0.45617493987083435, 
208, 3962053665, 2.005917549133301, -0.7487547993659973, 106.17240142822266, 0.12105104327201843, 0.3397790193557739, 9.914688110351562, 0.1922617107629776, 0.25196489691734314, 0.42997315526008606, 
209, 3962070332, 2.005645751953125, -0.7486391663551331, 106.16773986816406, 0.12772424519062042, 0.3391782343387604, 9.911144256591797, 0.13113699853420258, 0.2864011824131012, 0.4407561123371124, 
210, 3962086999, 2.006060838699341, -0.7490992546081543, 106.16543579101562, 0.1287003606557846, 0.3404581844806671, 9.91666030883789, 0.17201489210128784, 0.25045377016067505, 0.40030086040496826, 
211, 3962103666, 2.0052812099456787, -0.7485113143920898, 106.16368865966797, 0.12349716573953629, 0.3382484018802643, 9.909273147583008, 0.10106130689382553, 0.31474804878234863, 0.45267245173454285, 
212, 3962120333, 2.0057313442230225, -0.7478116750717163, 106.16246795654297, 0.13163284957408905, 0.3374362289905548, 9.916768074035645, 0.17371174693107605, 0.31926873326301575, 0.39998719096183777, 
213, 3962137000, 2.0057361125946045, -0.7473841905593872, 106.16081237792969, 0.13694728910923004, 0.32672587037086487, 9.912402153015137, 0.1478428989648819, 0.3050024211406708, 0.4309784770011902, 
214, 3962153667, 2.0064496994018555, -0.7469882369041443, 106.15697479248047, 0.12719139456748962, 0.3318935036659241, 9.905782699584961, 0.19272275269031525, 0.3066352307796478, 0.5526964664459229, 
215, 3962170334, 2.0204203128814697, -0.7551699876785278, 106.1535873413086, 0.10583242774009705, 0.3247760534286499, 9.93384075164795, 0.9863897562026978, -0.2101137787103653, 0.48835089802742004, 
216, 3962187001, 2.0654137134552, -0.7840693593025208, 106.15096282958984, 0.135298952460289, 0.3626556694507599, 9.896218299865723, 2.847472906112671, -1.4541354179382324, 0.49767398834228516, 
217, 3962203668, 2.0608155727386475, -0.7816455364227295, 106.14434051513672, 0.13310286402702332, 0.3735455870628357, 9.89863109588623, -0.12817874550819397, 0.42369166016578674, 0.4212200343608856, 
218, 3962220335, 2.0447938442230225, -0.7719366550445557, 106.14330291748047, 0.12960371375083923, 0.3704669773578644, 9.91427993774414, -0.8132224678993225, 0.8609325289726257, 0.41792240738868713, 
219, 3962237002, 2.008761405944824, -0.7498875856399536, 106.14324188232422, 0.15064072608947754, 0.3807176351547241, 9.883633613586426, -2.0144708156585693, 1.6011394262313843, 0.401133269071579, 
220, 3962253669, 2.0054705142974854, -0.7482267618179321, 106.14134216308594, 0.13209794461727142, 0.329608291387558, 9.955399513244629, -0.049605391919612885, 0.3791319727897644, 0.4460579454898834, 
221, 3962270336, 2.0056819915771484, -0.7476391792297363, 106.14280700683594, 0.13378967344760895, 0.3344508409500122, 9.912384986877441, 0.16022662818431854, 0.3147096335887909, 0.4400710463523865, 
222, 3962287003, 2.0062286853790283, -0.7481056451797485, 106.1431655883789, 0.12882570922374725, 0.3157254755496979, 9.907002449035645, 0.18108819425106049, 0.25235554575920105, 0.4856359660625458, 
223, 3962303670, 2.006525993347168, -0.7480018138885498, 106.14227294921875, 0.11935215443372726, 0.3292967975139618, 9.906704902648926, 0.16498421132564545, 0.284198522567749, 0.4124028980731964, 
224, 3962320337, 2.007420063018799, -0.7489091157913208, 106.14085388183594, 0.1354450285434723, 0.3495239317417145, 9.9159574508667, 0.20222505927085876, 0.2257118970155716, 0.46302637457847595, 
225, 3962337004, 2.006694793701172, -0.7493892908096313, 106.1412124633789, 0.11277212202548981, 0.34797927737236023, 9.917398452758789, 0.10417965799570084, 0.250901997089386, 0.466919481754303, 
226, 3962353671, 2.006866693496704, -0.7490277290344238, 106.13749694824219, 0.12380096316337585, 0.3378009796142578, 9.912219047546387, 0.15864507853984833, 0.29984790086746216, 0.41388842463493347, 
227, 3962370338, 2.00856614112854, -0.7490475177764893, 106.14190673828125, 0.11719977855682373, 0.35853296518325806, 9.90915584564209, 0.24970459938049316, 0.2783011794090271, 0.46074044704437256, 
228, 3962387005, 2.0109217166900635, -0.748641312122345, 106.14169311523438, 0.13148283958435059, 0.3460731506347656, 9.917792320251465, 0.2900574207305908, 0.30488717555999756, 0.4823063313961029, 
229, 3962403672, 2.0118532180786133, -0.7487142086029053, 106.14034271240234, 0.12512433528900146, 0.3433409333229065, 9.914051055908203, 0.20377464592456818, 0.274862676858902, 0.4586849808692932, 
230, 3962420339, 2.0095512866973877, -0.7484904527664185, 106.13909912109375, 0.12897233664989471, 0.3409838378429413, 9.908660888671875, 0.009316619485616684, 0.2913765013217926, 0.4149833619594574, 
231, 3962437006, 2.0196127891540527, -0.7545223236083984, 106.14075469970703, 0.10728588700294495, 0.3302482068538666, 9.942225456237793, 0.7514767050743103, -0.08416974544525146, 0.41653937101364136, 
232, 3962453673, 2.061664342880249, -0.7826465964317322, 106.1417007446289, 0.13467931747436523, 0.3514842987060547, 9.893798828125, 2.670738935470581, -1.40753972530365, 0.5218844413757324, 
233, 3962470340, 1.9654744863510132, -0.7257847785949707, 106.10157012939453, 0.15317413210868835, 0.28225600719451904, 9.803543090820312, -5.65492057800293, 3.603938341140747, -2.0807700157165527, 
234, 3962487007, 1.879839301109314, -0.6907787919044495, 106.05306243896484, 0.09405095875263214, 0.38970476388931274, 10.034564971923828, -5.025768280029297, 2.279466152191162, -2.5550522804260254, 
235, 3962503674, 1.8699684143066406, -0.6861514449119568, 106.0654296875, 0.12272129207849503, 0.2974349558353424, 9.919981002807617, -0.43771466612815857, 0.573212206363678, 0.9588882327079773, 
236, 3962520341, 1.8587809801101685, -0.6843015551567078, 106.11812591552734, 0.24453088641166687, 0.044076189398765564, 9.903559684753418, -0.4851365089416504, 0.4927755296230316, 3.594217300415039, 
237, 3962537008, 1.835636019706726, -0.6844200491905212, 106.43310546875, 0.031810276210308075, 0.7066795229911804, 9.923185348510742, -1.0179972648620605, 0.8676824569702148, 18.902158737182617, 
238, 3962553675, 1.8280119895935059, -0.6880283355712891, 106.60713195800781, 0.059277210384607315, 0.26964470744132996, 9.92920970916748, -0.18330374360084534, 0.4000064432621002, 11.012093544006348, 
239, 3962570342, 1.8048092126846313, -0.6938292384147644, 106.8803482055664, 0.10320885479450226, 0.28219255805015564, 9.909910202026367, -1.0519659519195557, 0.43861791491508484, 16.456035614013672, 
240, 3962587009, 1.800720453262329, -0.6957904696464539, 106.88304138183594, 0.11438485980033875, 0.3065454959869385, 9.912728309631348, -0.09720658510923386, 0.16036109626293182, 0.4533959627151489, 
241, 3962603676, 1.7265024185180664, -0.6986528038978577, 106.88463592529297, 0.10702884942293167, 0.3802129328250885, 9.92044734954834, -4.306795120239258, 0.10250203311443329, 0.3016023337841034, 
242, 3962620343, 1.3448567390441895, -0.7052003145217896, 106.8835678100586, 0.12064727395772934, 0.47057557106018066, 9.934562683105469, -22.753795623779297, -0.12062962353229523, 0.21442991495132446, 
243, 3962637010, 0.40771985054016113, -0.7137742638587952, 106.87531280517578, 0.11963986605405807, 0.528701663017273, 9.975565910339355, -56.08924865722656, -0.2467426359653473, -0.19683575630187988, 
244, 3962653677, -1.3204072713851929, -0.7156407833099365, 106.84168243408203, 0.13644957542419434, 0.15772488713264465, 9.987801551818848, -103.56529235839844, 0.18021135032176971, -1.4286150932312012, 
245, 3962670344, -3.060746431350708, -0.6782565116882324, 106.6938705444336, 0.12465933710336685, -0.4582682251930237, 9.86209774017334, -104.38460540771484, 2.8580846786499023, -8.350767135620117, 
246, 3962687011, -4.585389614105225, -0.6229785084724426, 106.29418182373047, 0.09407319128513336, -0.8009045720100403, 9.86104679107666, -91.60646057128906, 5.186524391174316, -23.283308029174805, 
247, 3962703678, -6.035935401916504, -0.6104924082756042, 105.97000122070312, 0.07666298747062683, -0.6748460531234741, 9.905298233032227, -87.09652709960938, 2.8230912685394287, -18.872425079345703, 
248, 3962720345, -7.799195766448975, -0.5680919885635376, 105.601806640625, 0.13449746370315552, -1.0225303173065186, 9.827653884887695, -105.87910461425781, 5.463484287261963, -21.200300216674805, 
249, 3962737012, -9.371358871459961, -0.5056518912315369, 105.40552520751953, 0.08529602736234665, -1.6200652122497559, 9.75108814239502, -94.29743194580078, 5.740149021148682, -10.661805152893066, 
250, 3962753679, -10.540824890136719, -0.46531596779823303, 105.28363037109375, 0.076790452003479, -1.681746244430542, 9.756863594055176, -70.08699798583984, 3.92551589012146, -6.361242771148682, 
251, 3962770346, -12.229991912841797, -0.41824227571487427, 105.21632385253906, 0.07583911716938019, -1.5423492193222046, 9.853374481201172, -101.23780822753906, 3.8434464931488037, -2.9763803482055664, 
252, 3962787013, -14.439668655395508, -0.30248957872390747, 105.15831756591797, 0.12023792415857315, -2.148465156555176, 9.642520904541016, -132.46038818359375, 7.838939189910889, -1.3627313375473022, 
253, 3962803680, -16.794811248779297, -0.22181947529315948, 105.13956451416016, 0.003995642997324467, -2.6066665649414062, 9.565596580505371, -141.1727294921875, 5.242424011230469, 0.6440445780754089, 
254, 3962820347, -19.253028869628906, -0.19110478460788727, 105.202880859375, -0.022476673126220703, -2.935940980911255, 9.490377426147461, -147.3386688232422, 0.8551389575004578, 4.606534004211426, 
255, 3962837014, -21.473562240600586, -0.22509115934371948, 105.31871795654297, 0.014479232020676136, -3.6543009281158447, 9.177522659301758, -133.0665740966797, -4.053348064422607, 6.229826927185059, 
256, 3962853681, -23.279111862182617, -0.28445297479629517, 105.26068878173828, 0.032185427844524384, -3.9099960327148438, 9.074954986572266, -108.2086181640625, -1.6909050941467285, -4.151426792144775, 
257, 3962870348, -25.02550506591797, -0.2644718289375305, 104.88835906982422, 0.06854770332574844, -4.083110332489014, 8.985966682434082, -104.74751281738281, 10.512331008911133, -19.470947265625, 
258, 3962887015, -26.912416458129883, -0.19174255430698395, 104.3393325805664, 0.056562285870313644, -4.274210453033447, 8.89122200012207, -113.20323181152344, 18.624576568603516, -27.281627655029297, 
259, 3962903682, -29.05159568786621, -0.09694518893957138, 103.78362274169922, -0.029597146436572075, -4.502833366394043, 8.776860237121582, -128.2911376953125, 20.945348739624023, -26.352787017822266, 
260, 3962920349, -31.235551834106445, -0.14967861771583557, 103.4619140625, -0.07893210649490356, -4.948486328125, 8.62358570098877, -130.93621826171875, 7.235105037689209, -17.859237670898438, 
261, 3962937016, -33.12099075317383, -0.3226051926612854, 103.27883911132812, -0.0399358868598938, -5.382843017578125, 8.332846641540527, -113.03125762939453, -2.65583872795105, -14.399812698364258, 
262, 3962953683, -34.79182815551758, -0.6497647762298584, 103.19381713867188, 0.02488703280687332, -5.531865119934082, 8.23055648803711, -100.1515121459961, -13.157151222229004, -14.773332595825195, 
263, 3962970350, -36.535709381103516, -0.6859877109527588, 102.81893157958984, 0.21877530217170715, -5.724565505981445, 7.903428554534912, -104.75188446044922, 11.624580383300781, -19.118986129760742, 
264, 3962987017, -38.56670379638672, -0.7034212946891785, 102.51070404052734, 0.154287651181221, -5.781692028045654, 7.930763244628906, -121.94200134277344, 10.716958999633789, -14.875434875488281, 
265, 3963003684, -40.80908966064453, -0.6077889204025269, 102.3108901977539, 0.1232670322060585, -6.167968273162842, 7.710625171661377, -134.53872680664062, 12.347723007202148, -5.137956619262695, 
266, 3963020351, -43.107025146484375, -0.5390926003456116, 102.23081970214844, 0.02823849767446518, -6.5845489501953125, 7.430178642272949, -137.783203125, 6.55511999130249, -0.39515361189842224, 
267, 3963037018, -45.4673957824707, -0.5596831440925598, 102.2607650756836, 0.016766954213380814, -6.8286004066467285, 7.115655422210693, -141.46478271484375, -1.8626487255096436, 0.8460791707038879, 
268, 3963053685, -47.422454833984375, -0.6392882466316223, 102.19121551513672, 0.01617307960987091, -7.537275791168213, 6.631753444671631, -117.2079849243164, 0.00888163410127163, -5.91500186920166, 
269, 3963070352, -48.9938850402832, -0.8658379912376404, 102.03166198730469, 0.07819890230894089, -7.541987419128418, 6.3945512771606445, -94.27022552490234, -1.6452466249465942, -16.092222213745117, 
270, 3963087019, -50.320648193359375, -1.0534248352050781, 101.70561218261719, 0.12025903910398483, -7.563813209533691, 6.341042518615723, -79.7909164428711, 7.898219108581543, -20.82005500793457, 
271, 3963103686, -51.64003372192383, -1.2860772609710693, 101.44963073730469, 0.14685124158859253, -7.6213250160217285, 6.257134437561035, -79.33322143554688, 3.4182043075561523, -20.092445373535156, 
272, 3963120353, -53.105682373046875, -1.528391718864441, 101.299560546875, 0.24685443937778473, -7.723219394683838, 6.0424723625183105, -88.01725769042969, -1.4708380699157715, -16.589839935302734, 
273, 3963137020, -54.69413375854492, -1.5709319114685059, 100.95475006103516, 0.3457900881767273, -7.937746047973633, 5.651597023010254, -95.72354125976562, 15.482010841369629, -13.826972007751465, 
274, 3963153687, -56.571044921875, -1.5724865198135376, 100.49462127685547, 0.2642359733581543, -8.018804550170898, 5.63226318359375, -113.22843933105469, 23.004030227661133, -15.234845161437988, 
275, 3963170354, -58.69521713256836, -1.582839846611023, 100.01558685302734, 0.1738181710243225, -8.26017951965332, 5.443428039550781, -128.0974884033203, 24.21161460876465, -15.48552131652832, 
276, 3963187021, -61.106231689453125, -1.6062012910842896, 99.64617156982422, 0.2926672697067261, -8.33400821685791, 5.088483810424805, -145.13516235351562, 18.742998123168945, -11.903599739074707, 
277, 3963203688, -63.63132858276367, -1.6370400190353394, 99.50940704345703, 0.16502296924591064, -8.744380950927734, 4.681271553039551, -151.59628295898438, 6.684324741363525, -5.02293062210083, 
278, 3963220355, -65.74634552001953, -1.6736119985580444, 99.48316955566406, 0.19940724968910217, -9.085491180419922, 3.9767353534698486, -126.80403137207031, 0.7617200016975403, -2.23706316947937, 
279, 3963237022, -67.01335144042969, -1.8471931219100952, 99.50146484375, 0.18638111650943756, -9.350621223449707, 3.603684425354004, -75.84635925292969, -4.902857780456543, -8.68269157409668, 
280, 3963253689, -67.52987670898438, -2.148386001586914, 99.38951873779297, 0.27383407950401306, -9.282546043395996, 3.5239017009735107, -31.082733154296875, -0.5151506066322327, -18.84225082397461, 
281, 3963270356, -67.8966293334961, -2.489786386489868, 99.29581451416016, 0.3221020996570587, -9.09725284576416, 3.8029050827026367, -22.08780860900879, -2.2939960956573486, -20.6655216217041, 
282, 3963287023, -68.34565734863281, -2.8687524795532227, 99.41180419921875, 0.3672269880771637, -9.08151626586914, 3.9074654579162598, -26.47249412536621, -14.649297714233398, -18.090444564819336, 
283, 3963303690, -68.87327575683594, -3.1110401153564453, 99.64226531982422, 0.5679839849472046, -9.002492904663086, 3.4556384086608887, -30.792394638061523, -17.883255004882812, -8.081817626953125, 
284, 3963320357, -69.47989654541016, -3.1427438259124756, 99.68328857421875, 0.5593500137329102, -9.106935501098633, 3.3702192306518555, -36.11870574951172, -2.6977596282958984, -0.4856189787387848, 
285, 3963337024, -70.36002349853516, -3.0369391441345215, 99.62567901611328, 0.5393416285514832, -9.056696891784668, 3.4621150493621826, -52.850013732910156, 5.697134971618652, 5.195902347564697, 
286, 3963353691, -71.82038879394531, -2.820646286010742, 99.7003173828125, 0.4748661518096924, -9.028233528137207, 3.6091558933258057, -87.24762725830078, 0.2515172064304352, 14.145020484924316, 
287, 3963370358, -73.68390655517578, -2.543689250946045, 100.09464263916016, 0.37504515051841736, -9.261971473693848, 3.212158441543579, -110.5614242553711, -17.368642807006836, 23.296775817871094, 
288, 3963387025, -75.58325958251953, -2.2020280361175537, 100.69481658935547, 0.2107289731502533, -9.547146797180176, 2.772312879562378, -112.3268051147461, -28.985435485839844, 29.719810485839844, 
289, 3963403692, -77.29841613769531, -1.7520543336868286, 101.169677734375, 0.42530980706214905, -9.4837646484375, 1.7758005857467651, -101.7852783203125, -21.0755672454834, 33.34019088745117, 
290, 3963420359, -78.6091079711914, -1.2457863092422485, 101.36237335205078, 0.15554286539554596, -9.789010047912598, 1.7208703756332397, -78.19729614257812, -4.686500072479248, 32.5366325378418, 
291, 3963437026, -79.54442596435547, -0.9449295997619629, 101.63321685791016, 0.010850675404071808, -9.838298797607422, 1.7315505743026733, -55.664798736572266, -12.255810737609863, 21.220006942749023, 
292, 3963453693, -80.08521270751953, -0.8223010301589966, 101.84964752197266, -0.011101048439741135, -9.853157043457031, 1.4813733100891113, -32.10329055786133, -11.2019681930542, 9.953848838806152, 
293, 3963470360, -80.15345764160156, -0.9147787690162659, 101.86279296875, -0.023554984480142593, -9.891157150268555, 1.3736566305160522, -3.9386065006256104, -1.4513567686080933, -4.914847373962402, 
294, 3963487027, -79.90355682373047, -1.1799507141113281, 101.67528533935547, 0.06118553876876831, -9.784790992736816, 1.565271019935608, 14.933701515197754, 8.59996223449707, -17.203176498413086, 
295, 3963503694, -79.77547454833984, -1.5003678798675537, 101.46039581298828, 0.14140325784683228, -9.636155128479004, 1.8726508617401123, 7.529784202575684, 9.572990417480469, -20.782419204711914, 
296, 3963520361, -79.86734008789062, -1.8036043643951416, 101.30534362792969, 0.2417602837085724, -9.613161087036133, 1.8377681970596313, -5.633739948272705, 6.213605880737305, -19.136327743530273, 
297, 3963537028, -80.2423095703125, -1.983485221862793, 101.15208435058594, 0.3182973861694336, -9.557914733886719, 1.7905410528182983, -22.65598487854004, 7.465076446533203, -11.803114891052246, 
298, 3963553695, -80.9358139038086, -2.0087244510650635, 100.98533630371094, 0.3386589288711548, -9.562737464904785, 1.7004196643829346, -41.813568115234375, 9.89252758026123, -2.7154762744903564, 
299, 3963570362, -81.88088989257812, -1.9179816246032715, 100.89710998535156, 0.3019717037677765, -9.64510440826416, 1.5724472999572754, -56.740116119384766, 6.320346832275391, 5.007552623748779, 
300, 3963587029, -82.79903411865234, -1.8194736242294312, 100.87431335449219, 0.24164849519729614, -9.7897310256958, 1.185617208480835, -54.9884033203125, 2.4201507568359375, 6.0890679359436035, 
301, 3963603696, -83.4897689819336, -1.7800627946853638, 100.80934143066406, 0.21130026876926422, -9.828328132629395, 1.0311756134033203, -41.42024612426758, 4.42708683013916, 2.2966346740722656, 
302, 3963620363, -84.0053482055664, -1.7905832529067993, 100.7065658569336, 0.23620754480361938, -9.785734176635742, 0.9583621621131897, -30.98202133178711, 6.335406303405762, -0.8853700757026672, 
303, 3963637030, -84.42845153808594, -1.7945276498794556, 100.5965576171875, 0.2274000644683838, -9.798539161682129, 0.904015302658081, -25.445892333984375, 6.816394805908203, -0.4874236583709717, 
304, 3963653697, -84.71790313720703, -1.8095139265060425, 100.50743103027344, 0.2137545794248581, -9.821722984313965, 0.8629957437515259, -17.38800811767578, 5.5141706466674805, -0.9878188967704773, 
305, 3963670364, -84.80329132080078, -1.8922159671783447, 100.49131774902344, 0.19853851199150085, -9.86143970489502, 0.7541112303733826, -5.006579399108887, 0.7869183421134949, -4.616715908050537, 
306, 3963687031, -84.68795776367188, -2.045121192932129, 100.48252868652344, 0.24642644822597504, -9.842829704284668, 0.7669214010238647, 7.049046993255615, -0.03880325332283974, -8.771956443786621, 
307, 3963703698, -84.48030853271484, -2.2209928035736084, 100.44134521484375, 0.28719690442085266, -9.805758476257324, 0.8762955665588379, 12.514191627502441, 1.738329291343689, -10.326627731323242, 
308, 3963720365, -84.3162612915039, -2.4083523750305176, 100.51036834716797, 0.2992408871650696, -9.747590065002441, 1.073502779006958, 10.157076835632324, -4.939336776733398, -10.372537612915039, 
309, 3963737032, -84.30035400390625, -2.5108349323272705, 100.62947082519531, 0.395525187253952, -9.688859939575195, 0.9537460803985596, 1.4108439683914185, -7.434805393218994, -4.999843597412109, 
310, 3963753699, -84.3914794921875, -2.509650230407715, 100.73351287841797, 0.4053010046482086, -9.676725387573242, 0.9663690328598022, -5.046048641204834, -5.921452045440674, 1.096383810043335, 
311, 3963770366, -84.53568267822266, -2.4388797283172607, 100.79015350341797, 0.3523414134979248, -9.785055160522461, 0.7522895336151123, -8.358233451843262, -2.6925487518310547, 4.964428424835205, 
312, 3963787033, -84.65316772460938, -2.359250545501709, 100.78624725341797, 0.3488003611564636, -9.772321701049805, 0.9416128396987915, -6.91057825088501, 0.960226833820343, 5.145689487457275, 
313, 3963803700, -84.86705780029297, -2.2275750637054443, 100.81327819824219, 0.3324529826641083, -9.732990264892578, 0.920274019241333, -12.618988037109375, -0.6142314076423645, 8.424810409545898, 
314, 3963820367, -85.13043975830078, -2.0778045654296875, 100.87767791748047, 0.2822544574737549, -9.815205574035645, 0.797321081161499, -15.509942054748535, -2.787010669708252, 9.698830604553223, 
315, 3963837034, -85.28775024414062, -1.987792730331421, 100.89408111572266, 0.2307264655828476, -9.882284164428711, 0.6766026020050049, -9.253488540649414, -0.25092774629592896, 5.873961925506592, 
316, 3963853701, -85.28473663330078, -1.9871962070465088, 100.8753662109375, 0.21097849309444427, -9.871888160705566, 0.655185341835022, 0.29123562574386597, 1.3985238075256348, 0.3531031012535095, 
317, 3963870368, -85.14299774169922, -2.082510471343994, 100.84373474121094, 0.21766336262226105, -9.873284339904785, 0.7350060939788818, 8.587153434753418, 1.6912775039672852, -5.448206901550293, 
318, 3963887035, -84.97098541259766, -2.2459535598754883, 100.84222412109375, 0.26750558614730835, -9.825215339660645, 0.8018243312835693, 10.466451644897461, -0.4795212745666504, -9.369182586669922, 
319, 3963903702, -84.76715850830078, -2.452515125274658, 100.8603744506836, 0.30302873253822327, -9.830279350280762, 0.8004227876663208, 12.42487907409668, -1.913987636566162, -11.839468002319336, 
320, 3963920369, -84.49019622802734, -2.665044069290161, 100.84647369384766, 0.3660396933555603, -9.78012752532959, 0.8092589378356934, 16.731271743774414, -0.08687841147184372, -12.365215301513672, 
321, 3963937036, -84.22103118896484, -2.8105852603912354, 100.83052062988281, 0.42063108086586, -9.692200660705566, 0.9536590576171875, 16.254257202148438, 0.3686504364013672, -8.376349449157715, 
322, 3963953703, -84.05118560791016, -2.8413054943084717, 100.8021240234375, 0.46835023164749146, -9.696794509887695, 0.9784374237060547, 10.257101058959961, 1.7808579206466675, -1.6002819538116455, 
323, 3963970370, -83.96320343017578, -2.7794039249420166, 100.80105590820312, 0.4315965175628662, -9.706588745117188, 1.016085147857666, 5.426506042480469, 0.7288158535957336, 4.09415864944458, 
324, 3963987037, -83.9094467163086, -2.6586692333221436, 100.83213806152344, 0.4036030173301697, -9.736845970153809, 1.0231105089187622, 3.465200424194336, -0.81074458360672, 7.8067851066589355, 
325, 3964003704, -83.85167694091797, -2.500133752822876, 100.87738800048828, 0.37685656547546387, -9.741233825683594, 0.9690917730331421, 3.7403199672698975, -1.4050875902175903, 10.154190063476562, 
326, 3964020371, -83.75679016113281, -2.3249807357788086, 100.89989471435547, 0.3264945447444916, -9.787437438964844, 1.0092790126800537, 5.9020586013793945, 0.06944246590137482, 10.999859809875488, 
327, 3964037038, -83.63007354736328, -2.1883609294891357, 100.92369079589844, 0.2951042652130127, -9.799962043762207, 1.040764570236206, 7.811563014984131, -0.24070824682712555, 8.710952758789062, 
328, 3964053705, -83.52050018310547, -2.1015946865081787, 100.94647216796875, 0.27517640590667725, -9.788633346557617, 1.0671491622924805, 6.776859283447266, -0.49937087297439575, 5.7324113845825195, 
329, 3964070372, -83.43305969238281, -2.0699703693389893, 100.94776916503906, 0.2573404312133789, -9.801365852355957, 1.0984429121017456, 5.4013800621032715, 0.41394609212875366, 2.2997326850891113, 
330, 3964087039, -83.40518951416016, -2.087684154510498, 100.95276641845703, 0.27477210760116577, -9.789534568786621, 1.116546869277954, 1.8342341184616089, -0.14322622120380402, -0.6152426600456238, 
331, 3964103706, -83.441162109375, -2.1335561275482178, 100.95298767089844, 0.2757869362831116, -9.774506568908691, 1.1087411642074585, -2.0046162605285645, -0.05141749605536461, -2.327310800552368, 
332, 3964120373, -83.5257797241211, -2.1926960945129395, 100.95884704589844, 0.29199209809303284, -9.756636619567871, 1.0932364463806152, -4.911504745483398, -0.4755638837814331, -3.0805933475494385, 
333, 3964137040, -83.59893798828125, -2.2753758430480957, 100.96063995361328, 0.2879757285118103, -9.795774459838867, 1.0247560739517212, -4.232741832733154, -0.38643160462379456, -4.511984825134277, 
334, 3964153707, -83.61610412597656, -2.388934373855591, 100.9116439819336, 0.30893853306770325, -9.800975799560547, 0.9932170510292053, -0.996244490146637, 2.436248302459717, -6.693559646606445, 
335, 3964170374, -83.56112670898438, -2.5537192821502686, 100.85860443115234, 0.32610395550727844, -9.798484802246094, 1.0432755947113037, 3.3153793811798096, 2.332427740097046, -9.776268005371094, 
336, 3964187041, -83.44503784179688, -2.7278780937194824, 100.78804016113281, 0.37164410948753357, -9.760367393493652, 1.033892273902893, 6.922675609588623, 3.2951207160949707, -10.45623779296875, 
337, 3964203708, -83.35470581054688, -2.860638380050659, 100.71762084960938, 0.42830419540405273, -9.71174430847168, 1.096592903137207, 5.367700576782227, 3.5538723468780518, -7.993880271911621, 
338, 3964220375, -83.35179138183594, -2.9291200637817383, 100.65707397460938, 0.44477614760398865, -9.697625160217285, 1.1497540473937988, 0.14626774191856384, 3.4056508541107178, -4.097661018371582, 
339, 3964237042, -83.44176483154297, -2.934924602508545, 100.63993072509766, 0.45994022488594055, -9.710658073425293, 1.1464625597000122, -5.297475337982178, 1.2556692361831665, -0.06049720570445061, 
340, 3964253709, -83.57492065429688, -2.8991785049438477, 100.63802337646484, 0.4281020164489746, -9.745705604553223, 1.073905348777771, -7.84163761138916, 0.6321792602539062, 2.5212831497192383, 
341, 3964270376, -83.70664978027344, -2.84539532661438, 100.64051055908203, 0.41709059476852417, -9.738556861877441, 1.0397224426269531, -7.741812229156494, 0.48605868220329285, 3.626932144165039, 
342, 3964287043, -83.82544708251953, -2.7873778343200684, 100.66378021240234, 0.40258631110191345, -9.776521682739258, 1.0253429412841797, -6.905760765075684, -0.7325488924980164, 4.014042377471924, 
343, 3964303710, -83.89163970947266, -2.7470104694366455, 100.68123626708984, 0.40290284156799316, -9.784110069274902, 0.9865447878837585, -3.768307685852051, -0.5053514838218689, 2.9232354164123535, 
344, 3964320377, -83.92115783691406, -2.7108428478240967, 100.69989776611328, 0.3826867341995239, -9.782890319824219, 0.9851570725440979, -1.5624260902404785, -0.6052793264389038, 2.678211212158203, 
345, 3964337044, -83.90796661376953, -2.676922559738159, 100.71104431152344, 0.3850296437740326, -9.783711433410645, 0.9784504771232605, 0.9777840375900269, -0.17129774391651154, 2.496616840362549, 
346, 3964353711, -83.86359405517578, -2.6427156925201416, 100.72647094726562, 0.3827848434448242, -9.767171859741211, 1.0023998022079468, 2.8607277870178223, -0.4242360293865204, 2.5418879985809326, 
347, 3964370378, -83.80159759521484, -2.5998711585998535, 100.7432632446289, 0.3768552541732788, -9.773377418518066, 0.9849718809127808, 3.920081615447998, -0.44852957129478455, 3.065808057785034, 
348, 3964387045, -83.70660400390625, -2.5766401290893555, 100.72611236572266, 0.34702709317207336, -9.792167663574219, 1.0025230646133423, 5.808198928833008, 1.4498776197433472, 1.6742961406707764, 
349, 3964403712, -83.59137725830078, -2.6077749729156494, 100.7159194946289, 0.3407231569290161, -9.804206848144531, 1.0817373991012573, 7.041476249694824, 0.6768348813056946, -1.5225342512130737, 
350, 3964420379, -83.53276062011719, -2.6633431911468506, 100.71424865722656, 0.3687814176082611, -9.763039588928223, 1.0831526517868042, 3.6665923595428467, 0.0013382637407630682, -2.9232800006866455, 
351, 3964437046, -83.55608367919922, -2.712740421295166, 100.71516418457031, 0.38632842898368835, -9.751110076904297, 1.1191552877426147, -1.2413963079452515, -0.11174820363521576, -2.538398027420044, 
352, 3964453713, -83.65119934082031, -2.7293052673339844, 100.72117614746094, 0.3909851610660553, -9.747565269470215, 1.0466059446334839, -5.53427791595459, -0.1931069791316986, -0.5476379990577698, 
353, 3964470380, -83.71490478515625, -2.7474424839019775, 100.70879364013672, 0.38229289650917053, -9.789905548095703, 1.0169776678085327, -3.701381206512451, 0.8950038552284241, -0.7632840871810913, 
354, 3964487047, -83.71175384521484, -2.7811858654022217, 100.69275665283203, 0.3855040669441223, -9.790711402893066, 1.0280953645706177, 0.2979077100753784, 1.0084551572799683, -1.716806411743164, 
355, 3964503714, -83.68984985351562, -2.803351640701294, 100.69934844970703, 0.3967648148536682, -9.735983848571777, 1.0419212579727173, 1.4896665811538696, -0.26195386052131653, -0.8791942596435547, 
356, 3964520381, -83.64607238769531, -2.8065152168273926, 100.70909881591797, 0.40865907073020935, -9.770988464355469, 1.0282580852508545, 2.8103344440460205, -0.3266131579875946, 0.27570152282714844, 
357, 3964537048, -83.58600616455078, -2.783961772918701, 100.71542358398438, 0.4171982407569885, -9.740608215332031, 1.0280035734176636, 3.778891086578369, 0.04974626004695892, 1.7858774662017822, 
358, 3964553715, -83.4968032836914, -2.7388765811920166, 100.72142028808594, 0.4119567573070526, -9.761680603027344, 1.029792308807373, 5.525280952453613, 0.22154349088668823, 3.1271767616271973, 
359, 3964570382, -83.3519515991211, -2.700380802154541, 100.72251892089844, 0.3808383345603943, -9.77793025970459, 1.0641238689422607, 8.850769996643066, 0.4755958914756775, 2.701442003250122, 
360, 3964587049, -83.19559478759766, -2.6697754859924316, 100.72367858886719, 0.3664163649082184, -9.755526542663574, 1.1146153211593628, 9.540241241455078, 0.42023414373397827, 2.230642795562744, 
361, 3964603716, -83.04293823242188, -2.6555397510528564, 100.7451171875, 0.36818593740463257, -9.766460418701172, 1.1782548427581787, 9.377714157104492, -0.8958811163902283, 1.400662899017334, 
362, 3964620383, -82.88692474365234, -2.6405911445617676, 100.75973510742188, 0.37794333696365356, -9.7553071975708, 1.1387633085250854, 9.557567596435547, -0.48542481660842896, 1.3954635858535767, 
363, 3964637050, -82.70648193359375, -2.633131265640259, 100.75560760498047, 0.3827153444290161, -9.760035514831543, 1.187766194343567, 10.971492767333984, 0.5771888494491577, 0.810763955116272, 
364, 3964653717, -82.5606918334961, -2.6167538166046143, 100.73139953613281, 0.3767040967941284, -9.724987983703613, 1.2540136575698853, 8.839834213256836, 1.8407530784606934, 1.1865406036376953, 
365, 3964670384, -82.50189208984375, -2.592777729034424, 100.72709655761719, 0.35932934284210205, -9.724944114685059, 1.3117141723632812, 3.6727516651153564, 0.7183016538619995, 1.7908333539962769, 
366, 3964687051, -82.50672149658203, -2.567790985107422, 100.73220825195312, 0.3695826530456543, -9.749780654907227, 1.2708783149719238, -0.11931674927473068, 0.1670268177986145, 1.923622488975525, 
367, 3964703718, -82.55500030517578, -2.535102367401123, 100.75731658935547, 0.36817383766174316, -9.720528602600098, 1.2547906637191772, -2.672852039337158, -0.9628199934959412, 2.537226438522339, 
368, 3964720385, -82.59625244140625, -2.4967174530029297, 100.77397918701172, 0.34457927942276, -9.765100479125977, 1.2209008932113647, -2.2738571166992188, -0.41746142506599426, 2.8096044063568115, 
369, 3964737052, -82.60383605957031, -2.4767045974731445, 100.78646087646484, 0.34295016527175903, -9.76040267944336, 1.2159538269042969, -0.2657061517238617, -0.3128591477870941, 1.6845282316207886, 
370, 3964753719, -82.59981536865234, -2.470756769180298, 100.7884750366211, 0.3362041115760803, -9.762523651123047, 1.2231113910675049, 0.4039826989173889, 0.2022058367729187, 0.7661589980125427, 
371, 3964770386, -82.55692291259766, -2.490823745727539, 100.78545379638672, 0.32755330204963684, -9.780769348144531, 1.2065036296844482, 2.7232892513275146, 0.2985352575778961, -0.8208997845649719, 
372, 3964787053, -82.45162200927734, -2.5332014560699463, 100.78010559082031, 0.34273475408554077, -9.781320571899414, 1.2324533462524414, 6.462079048156738, 0.26114070415496826, -2.1668989658355713, 
373, 3964803720, -82.32960510253906, -2.583106517791748, 100.77534484863281, 0.3631426990032196, -9.739855766296387, 1.2773977518081665, 7.465251922607422, 0.16195552051067352, -2.60992169380188, 
374, 3964820387, -82.22809600830078, -2.63309383392334, 100.78045654296875, 0.3671550154685974, -9.732210159301758, 1.306435465812683, 6.262465000152588, -0.4323423206806183, -2.5347864627838135, 
375, 3964837054, -82.13162994384766, -2.676030158996582, 100.76902770996094, 0.3789454996585846, -9.713833808898926, 1.3009222745895386, 5.913044452667236, 0.6030575037002563, -2.2497172355651855, 
376, 3964853721, -82.04837036132812, -2.7030763626098633, 100.7572021484375, 0.395298570394516, -9.727204322814941, 1.3088613748550415, 5.120805263519287, 0.7534936666488647, -1.309756875038147, 
377, 3964870388, -81.99964904785156, -2.7051520347595215, 100.7442398071289, 0.417047917842865, -9.68232250213623, 1.3665438890457153, 3.0441651344299316, 1.0267938375473022, 0.1633642017841339, 
378, 3964887055, -82.03276062011719, -2.664841890335083, 100.7510986328125, 0.4014388620853424, -9.69743537902832, 1.3724206686019897, -1.8089736700057983, 0.2037554234266281, 2.8475239276885986, 
379, 3964903722, -82.07254028320312, -2.610281229019165, 100.7697525024414, 0.37974345684051514, -9.732821464538574, 1.3190782070159912, -2.177450656890869, -0.37937527894973755, 3.791377544403076, 
380, 3964920389, -82.0691909790039, -2.560046911239624, 100.78084564208984, 0.3643094003200531, -9.761996269226074, 1.286368727684021, 0.3888584077358246, 0.03179176151752472, 3.4715001583099365, 
381, 3964937056, -82.00194549560547, -2.535818576812744, 100.78695678710938, 0.36542701721191406, -9.75048542022705, 1.3152174949645996, 4.2096848487854, 0.11329139024019241, 1.8852936029434204, 
382, 3964953723, -81.9259033203125, -2.510568141937256, 100.7897720336914, 0.3581152856349945, -9.725497245788574, 1.3390510082244873, 4.728034496307373, 0.3181930482387543, 1.9178599119186401, 
383, 3964970390, -81.8690185546875, -2.4739990234375, 100.79279327392578, 0.3677622675895691, -9.7205171585083, 1.3430124521255493, 3.5799827575683594, 0.4048791527748108, 2.5925495624542236, 
384, 3964987057, -81.84034729003906, -2.4291398525238037, 100.80997467041016, 0.3529937267303467, -9.708980560302734, 1.3934024572372437, 1.9228156805038452, -0.3635082244873047, 3.2048721313476562, 
385, 3965003724, -81.85792541503906, -2.3544962406158447, 100.84002685546875, 0.3443765938282013, -9.707086563110352, 1.3819019794464111, -0.8214505910873413, -0.8732779622077942, 5.082206726074219, 
386, 3965020391, -81.87681579589844, -2.272695779800415, 100.86808776855469, 0.3114924430847168, -9.732367515563965, 1.3367767333984375, -0.9076116681098938, -0.697638750076294, 5.49097204208374, 
387, 3965037058, -81.86151123046875, -2.2005703449249268, 100.89994812011719, 0.30726704001426697, -9.747511863708496, 1.3607733249664307, 1.1527187824249268, -1.004478931427002, 4.94802188873291, 
388, 3965053725, -81.8488540649414, -2.1227738857269287, 100.93460083007812, 0.31171244382858276, -9.718738555908203, 1.3596041202545166, 0.9961997270584106, -1.1207478046417236, 5.308380603790283, 
389, 3965070392, -81.82775115966797, -2.0555784702301025, 100.95694732666016, 0.2598955035209656, -9.762676239013672, 1.3539682626724243, 1.4741196632385254, -0.48005878925323486, 4.574460506439209, 
390, 3965087059, -81.76129913330078, -2.0313022136688232, 100.9698715209961, 0.2659985423088074, -9.79047679901123, 1.340517282485962, 4.172354221343994, -0.28533831238746643, 1.9450350999832153, 
391, 3965103726, -81.65099334716797, -2.041141986846924, 100.97415924072266, 0.2725183665752411, -9.743570327758789, 1.3761461973190308, 6.7876410484313965, -0.06480013579130173, -0.15399634838104248, 
392, 3965120393, -81.52581787109375, -2.062342882156372, 100.98300170898438, 0.2923383116722107, -9.720536231994629, 1.4258219003677368, 7.688709735870361, -0.4375930428504944, -0.7876931428909302, 
393, 3965137060, -81.41223907470703, -2.075263738632202, 100.99800872802734, 0.2867414057254791, -9.714639663696289, 1.4316425323486328, 7.006119251251221, -0.7314605712890625, -0.2403240203857422, 
394, 3965153727, -81.32222747802734, -2.081573963165283, 101.0119400024414, 0.2968931198120117, -9.704890251159668, 1.469340205192566, 5.5892486572265625, -0.6092109084129333, 0.14364242553710938, 
395, 3965170394, -81.26834869384766, -2.0694921016693115, 101.00637817382812, 0.3005763590335846, -9.711190223693848, 1.4557019472122192, 3.380229949951172, 0.714728832244873, 1.0589251518249512, 
396, 3965187061, -81.22138214111328, -2.057126522064209, 100.98051452636719, 0.2882761061191559, -9.707413673400879, 1.4480849504470825, 2.9214937686920166, 1.9191662073135376, 0.8907009363174438, 
397, 3965203728, -81.13765716552734, -2.0505874156951904, 100.95500946044922, 0.28247198462486267, -9.729593276977539, 1.4607998132705688, 5.127810001373291, 1.8449020385742188, 0.5452367663383484, 
398, 3965220395, -81.01949310302734, -2.042941093444824, 100.93644714355469, 0.28668782114982605, -9.715420722961426, 1.4894615411758423, 7.2102251052856445, 1.4448957443237305, 0.6728264689445496, 
399, 3965237062, -80.90654754638672, -2.0436692237854004, 100.94483184814453, 0.2882053554058075, -9.70789623260498, 1.5422441959381104, 6.952921390533447, -0.22988685965538025, 0.42763617634773254, 
400, 3965253729, -80.77668762207031, -2.0627171993255615, 100.96690368652344, 0.2724936008453369, -9.738777160644531, 1.5283827781677246, 7.998213291168213, -1.2155660390853882, -0.5249195098876953, 
401, 3965270396, -80.59298706054688, -2.111304998397827, 100.9737319946289, 0.2747407555580139, -9.713034629821777, 1.536345362663269, 11.197871208190918, -0.6021036505699158, -2.4188132286071777, 
402, 3965287063, -80.38925170898438, -2.1793644428253174, 100.9708480834961, 0.2997018098831177, -9.707496643066406, 1.6022447347640991, 12.376620292663574, -0.23183348774909973, -3.6646158695220947, 
403, 3965303730, -80.24533081054688, -2.2413039207458496, 100.96162414550781, 0.32473811507225037, -9.658161163330078, 1.6553118228912354, 8.773151397705078, 0.19333107769489288, -3.3644464015960693, 
404, 3965320397, -80.2175064086914, -2.2709410190582275, 100.96182250976562, 0.33368945121765137, -9.638319969177246, 1.7338107824325562, 1.8308535814285278, -0.03893130645155907, -1.35860013961792, 
405, 3965337064, -80.28915405273438, -2.265216112136841, 100.99068450927734, 0.33912208676338196, -9.660813331604004, 1.671794056892395, -4.07080602645874, -1.3746336698532104, 1.0231186151504517, 
406, 3965353731, -80.39423370361328, -2.236917495727539, 101.01554870605469, 0.3238752484321594, -9.674283981323242, 1.6582868099212646, -6.0856804847717285, -0.9107365012168884, 2.3155484199523926, 
407, 3965370398, -80.49425506591797, -2.1979050636291504, 101.03339385986328, 0.3064403533935547, -9.694764137268066, 1.6044983863830566, -5.80068826675415, -0.394153892993927, 2.877286434173584, 
408, 3965387065, -80.56948852539062, -2.1564993858337402, 101.04216003417969, 0.3195784389972687, -9.70447826385498, 1.5751885175704956, -4.3347320556640625, 0.1631593257188797, 2.9286139011383057, 
409, 3965403732, -80.6220703125, -2.1264753341674805, 101.03861999511719, 0.2937454879283905, -9.715208053588867, 1.5787605047225952, -3.0041263103485107, 0.7766474485397339, 2.133890151977539, 
410, 3965420399, -80.66893005371094, -2.1086411476135254, 101.04075622558594, 0.2869662344455719, -9.716971397399902, 1.5621607303619385, -2.647841215133667, 0.320344477891922, 1.4676270484924316, 
411, 3965437066, -80.69271850585938, -2.110377073287964, 101.04216003417969, 0.2887818515300751, -9.737513542175293, 1.575177788734436, -1.2636409997940063, 0.17463380098342896, 0.30163437128067017, 
412, 3965453733, -80.71781158447266, -2.137038469314575, 101.04486846923828, 0.2870141863822937, -9.71087646484375, 1.586726427078247, -1.340197205543518, -0.14587712287902832, -1.1620737314224243, 
413, 3965470400, -80.75043487548828, -2.181664228439331, 101.05733489990234, 0.30239757895469666, -9.71037769317627, 1.5649983882904053, -1.770093560218811, -0.8951382040977478, -2.131117343902588, 
414, 3965487067, -80.75264739990234, -2.2297589778900146, 101.05059051513672, 0.322976678609848, -9.703897476196289, 1.5392279624938965, 0.011340023018419743, 0.20759733021259308, -2.5217881202697754, 
415, 3965503734, -80.73493194580078, -2.2672464847564697, 101.02411651611328, 0.32424381375312805, -9.694710731506348, 1.543225646018982, 1.16009521484375, 1.477398157119751, -2.0846688747406006, 
416, 3965520401, -80.73701477050781, -2.2861485481262207, 101.0106201171875, 0.3387158215045929, -9.686347007751465, 1.5435090065002441, 0.0018889365019276738, 0.8884469270706177, -0.8588322401046753, 
417, 3965537068, -80.78305053710938, -2.283381700515747, 101.01366424560547, 0.3281649947166443, -9.669880867004395, 1.6062840223312378, -2.595193862915039, 0.11920790374279022, 0.5830795168876648, 
418, 3965553735, -80.8828353881836, -2.245258092880249, 101.02903747558594, 0.32237163186073303, -9.681260108947754, 1.5420666933059692, -5.790827751159668, -0.2720581591129303, 2.7952358722686768, 
419, 3965570402, -80.96475219726562, -2.1971256732940674, 101.0477523803711, 0.3090204894542694, -9.699419975280762, 1.5281281471252441, -4.7128777503967285, -0.3797851502895355, 3.419301986694336, 
420, 3965587069, -81.0069580078125, -2.149216890335083, 101.0672378540039, 0.3065360486507416, -9.728692054748535, 1.4946829080581665, -2.327810049057007, -0.4302420914173126, 3.4121813774108887, 
421, 3965603736, -81.00837707519531, -2.127718925476074, 101.07701110839844, 0.28034526109695435, -9.745328903198242, 1.487768292427063, 0.09592597186565399, -0.10365460067987442, 1.7558722496032715, 
422, 3965620403, -81.00848388671875, -2.134207010269165, 101.07759857177734, 0.2981629967689514, -9.706820487976074, 1.5283211469650269, 0.15578283369541168, 0.17829638719558716, 0.010763736441731453, 
423, 3965637070, -81.05387115478516, -2.15081787109375, 101.07634735107422, 0.291703462600708, -9.73009967803955, 1.5065464973449707, -2.5672504901885986, 0.1916021853685379, -0.6065343022346497, 
424, 3965653737, -81.08564758300781, -2.1897671222686768, 101.05695343017578, 0.29948878288269043, -9.730450630187988, 1.5044585466384888, -1.7918388843536377, 1.0590019226074219, -2.099191427230835, 
425, 3965670404, -81.0774917602539, -2.2388343811035156, 101.03438568115234, 0.31087949872016907, -9.721710205078125, 1.46664297580719, 0.5979861617088318, 1.1530646085739136, -2.728533983230591, 
426, 3965687071, -81.04534149169922, -2.2874367237091064, 101.0080795288086, 0.3211868703365326, -9.698266983032227, 1.5140236616134644, 2.0269951820373535, 1.3785842657089233, -2.7364861965179443, 
427, 3965703738, -81.02896881103516, -2.3301842212677, 100.999755859375, 0.32197460532188416, -9.704231262207031, 1.5151335000991821, 1.1224316358566284, 0.36678025126457214, -2.2220423221588135, 
428, 3965720405, -80.988525390625, -2.3883087635040283, 101.00326538085938, 0.3276767134666443, -9.731926918029785, 1.492814540863037, 2.5941123962402344, -0.4812498986721039, -3.0222606658935547, 
429, 3965737072, -80.92915344238281, -2.4485654830932617, 101.00263977050781, 0.35853007435798645, -9.694588661193848, 1.5205003023147583, 3.720853090286255, -0.257343590259552, -3.1871418952941895, 
430, 3965753739, -80.8997573852539, -2.485576629638672, 100.99712371826172, 0.37220102548599243, -9.69347095489502, 1.5261428356170654, 1.9100348949432373, 0.25008878111839294, -1.8559472560882568, 
431, 3965770406, -80.90251922607422, -2.5061705112457275, 100.98526000976562, 0.3640030026435852, -9.68346881866455, 1.5554769039154053, -0.03603706881403923, 0.780066728591919, -0.9432516694068909, 
432, 3965787073, -80.95536804199219, -2.4999337196350098, 100.977783203125, 0.3645216226577759, -9.68498706817627, 1.532092571258545, -3.030327796936035, 0.77511066198349, 0.6887574791908264, 
433, 3965803740, -81.02113342285156, -2.469770908355713, 100.97322845458984, 0.3757307529449463, -9.6803617477417, 1.5225436687469482, -3.7982993125915527, 0.8250939846038818, 2.1334035396575928, 
434, 3965820407, -81.09483337402344, -2.4112014770507812, 100.96296691894531, 0.363963782787323, -9.707282066345215, 1.4987010955810547, -4.289256572723389, 1.426147222518921, 3.765355348587036, 
435, 3965837074, -81.17717742919922, -2.338775157928467, 100.94960021972656, 0.3482593595981598, -9.707303047180176, 1.4828474521636963, -4.812741756439209, 1.7352412939071655, 4.558593273162842, 
436, 3965853741, -81.30918884277344, -2.264033794403076, 100.94881439208984, 0.3153098523616791, -9.715529441833496, 1.5145378112792969, -7.762147426605225, 1.001693606376648, 4.814132213592529, 
437, 3965870408, -81.51206970214844, -2.176225423812866, 100.9341812133789, 0.31789472699165344, -9.71144962310791, 1.4302260875701904, -12.04627513885498, 1.928080439567566, 5.466976642608643, 
438, 3965887075, -81.80553436279297, -2.051417589187622, 100.8619613647461, 0.31608352065086365, -9.666677474975586, 1.4323201179504395, -17.606718063354492, 5.644182205200195, 7.169753074645996, 
439, 3965903742, -82.25931549072266, -1.881452202796936, 100.8320541381836, 0.25400564074516296, -9.703466415405273, 1.4917209148406982, -27.128467559814453, 3.463200330734253, 10.239265441894531, 
440, 3965920409, -82.77098083496094, -1.7451460361480713, 100.86207580566406, 0.25243017077445984, -9.76669979095459, 1.1815465688705444, -30.483015060424805, -0.4442410469055176, 8.731919288635254, 
441, 3965937076, -83.36282348632812, -1.5581393241882324, 100.73881530761719, 0.23972363770008087, -9.729634284973145, 1.180003046989441, -35.563846588134766, 8.965558052062988, 10.63438892364502, 
442, 3965953743, -84.03231811523438, -1.4160524606704712, 100.70047760009766, 0.1443127691745758, -9.83749771118164, 1.0810940265655518, -40.069393157958984, 3.4959938526153564, 8.609663963317871, 
443, 3965970410, -84.5987548828125, -1.3601551055908203, 100.58076477050781, 0.14978238940238953, -9.835186958312988, 0.8008547425270081, -33.99867630004883, 7.75324821472168, 3.014890670776367, 
444, 3965987077, -85.16908264160156, -1.360921859741211, 100.3940658569336, 0.12342088669538498, -9.820996284484863, 0.8706372380256653, -34.3253288269043, 11.424834251403809, -0.6570199728012085, 
445, 3966003744, -85.75493621826172, -1.4510444402694702, 100.18084716796875, 0.039152443408966064, -9.929423332214355, 0.6610472202301025, -35.30356979370117, 12.59652328491211, -6.013891696929932, 
446, 3966020411, -85.59180450439453, -1.3417408466339111, 100.46076965332031, -1.030137300491333, -9.457906723022461, 2.328524351119995, 10.357542037963867, -15.972346305847168, 8.193726539611816, 
447, 3966037078, -86.1982421875, -1.3935881853103638, 100.24980163574219, 1.315286636352539, -10.109403610229492, -0.932649552822113, -36.533912658691406, 12.673978805541992, -3.626303195953369, 
448, 3966053745, -87.04087829589844, -1.573994755744934, 99.79681396484375, 0.21640969812870026, -9.79780101776123, 0.4467601478099823, -51.09891128540039, 26.76187515258789, -12.020223617553711, 
449, 3966070412, -88.00089263916016, -1.7103508710861206, 99.2947998046875, 0.2249474972486496, -9.78093147277832, 0.46517518162727356, -58.30002212524414, 30.003276824951172, -9.088998794555664, 
450, 3966087079, -89.04093933105469, -1.8085333108901978, 98.8785171508789, 0.2655063271522522, -9.772012710571289, 0.16400644183158875, -63.00687026977539, 25.080537796020508, -6.1452531814575195, 
451, 3966103746, -90.0917739868164, -1.808300495147705, 98.36144256591797, 0.2869850695133209, -9.74216079711914, -0.029804110527038574, -63.865970611572266, 31.28660774230957, 0.1660308986902237, 
452, 3966120413, -91.17234802246094, -1.6894205808639526, 97.8420639038086, 0.27416184544563293, -9.734659194946289, -0.09459636360406876, -65.61966705322266, 31.347349166870117, 7.8646745681762695, 
453, 3966137080, -92.33448791503906, -1.4854490756988525, 97.35277557373047, 0.20754282176494598, -9.790567398071289, -0.3507321774959564, -70.37577819824219, 29.238143920898438, 13.518980979919434, 
454, 3966153747, -93.42227935791016, -1.369451880455017, 96.93630981445312, 0.1042691022157669, -9.906188011169434, -0.47363314032554626, -65.7262191772461, 24.878421783447266, 8.5938720703125, 
455, 3966170414, -94.4042739868164, -1.3750475645065308, 96.7391128540039, 0.12419292330741882, -9.84872055053711, -0.637897253036499, -59.03779220581055, 12.105107307434082, 0.860565721988678, 
456, 3966187081, -95.3178939819336, -1.4291809797286987, 96.65321350097656, 0.1622995138168335, -9.76908016204834, -0.8490714430809021, -54.77880859375, 5.690056324005127, -2.411807060241699, 
457, 3966203748, -96.11653900146484, -1.498974084854126, 96.58119201660156, 0.151432603597641, -9.776805877685547, -1.0010520219802856, -47.865177154541016, 4.996892929077148, -3.3487985134124756, 
458, 3966220415, -96.81319427490234, -1.603416919708252, 96.61981201171875, 0.17893505096435547, -9.756671905517578, -1.0253900289535522, -41.57183837890625, -1.312454104423523, -6.0990495681762695, 
459, 3966237082, -97.50393676757812, -1.690817952156067, 96.72772216796875, 0.21501900255680084, -9.728312492370605, -1.1918834447860718, -41.0948371887207, -5.485658168792725, -5.621662616729736, 
460, 3966253749, -98.25398254394531, -1.7307872772216797, 96.82044982910156, 0.24270164966583252, -9.661002159118652, -1.2494763135910034, -44.672969818115234, -4.896658420562744, -2.749978542327881, 
461, 3966270416, -99.18286895751953, -1.669797658920288, 97.12821197509766, 0.22565937042236328, -9.66714096069336, -1.1584410667419434, -55.021793365478516, -18.514719009399414, 1.206839919090271, 
462, 3966287083, -100.26870727539062, -1.524925947189331, 97.66825866699219, 0.19319377839565277, -9.63455867767334, -1.5671756267547607, -64.08372497558594, -33.107852935791016, 3.4825782775878906, 
463, 3966303750, -101.37873840332031, -1.4003605842590332, 98.18999481201172, 0.14760003983974457, -9.631368637084961, -1.8579611778259277, -65.64159393310547, -31.855501174926758, 1.8521084785461426, 
464, 3966320417, -102.58744812011719, -1.2548844814300537, 98.7661361694336, 0.1287136971950531, -9.554520606994629, -1.9198920726776123, -71.55928802490234, -35.331695556640625, 1.751275658607483, 
465, 3966337084, -103.94641876220703, -1.0460214614868164, 99.58606719970703, 0.10820941627025604, -9.49107551574707, -2.1994004249572754, -80.38765716552734, -50.46126174926758, 1.2969849109649658, 
466, 3966353751, -105.35282135009766, -0.8338862061500549, 100.0837631225586, 0.07999678701162338, -9.407543182373047, -2.752568483352661, -83.7343978881836, -31.82000732421875, 5.150328636169434, 
467, 3966370418, -106.76555633544922, -0.6363921165466309, 100.20559692382812, 0.05702824518084526, -9.346650123596191, -2.882986545562744, -84.50926971435547, -10.013108253479004, 9.752933502197266, 
468, 3966387085, -108.25800323486328, -0.4388046860694885, 100.17317199707031, 0.005994218867272139, -9.271193504333496, -2.9391441345214844, -89.40351867675781, -1.422595739364624, 12.278728485107422, 
469, 3966403752, -109.89437103271484, -0.11071231961250305, 100.26519012451172, -0.021148234605789185, -9.184625625610352, -3.0922653675079346, -97.99396514892578, -11.360247611999512, 17.187850952148438, 
470, 3966420419, -111.60084533691406, 0.2604343295097351, 100.38236999511719, -0.09499788284301758, -9.103400230407715, -3.506706714630127, -102.23704528808594, -14.173182487487793, 18.722654342651367, 
471, 3966437086, -113.11654663085938, 0.641106903553009, 100.57405853271484, -0.2748878002166748, -9.064676284790039, -3.8265275955200195, -90.87198638916016, -19.03331756591797, 17.13629913330078, 
472, 3966453753, -114.4061050415039, 1.0270063877105713, 101.03963470458984, -0.3154003322124481, -8.956794738769531, -4.058435440063477, -77.61822509765625, -34.59994125366211, 10.325430870056152, 
473, 3966470420, -115.48416900634766, 1.2573355436325073, 101.3814468383789, -0.382272332906723, -8.856389999389648, -4.272340297698975, -64.93238067626953, -24.125829696655273, 4.270432949066162, 
474, 3966487087, -116.49510955810547, 1.5094413757324219, 101.85618591308594, -0.35545358061790466, -8.751643180847168, -4.325481414794922, -61.18251419067383, -31.930082321166992, 1.506007194519043, 
475, 3966503754, -117.55154418945312, 1.761325478553772, 102.06583404541016, -0.37366849184036255, -8.664592742919922, -4.5099687576293945, -63.58452606201172, -17.77062225341797, 8.137773513793945, 
476, 3966520421, -118.51423645019531, 1.967646837234497, 101.97247314453125, -0.48994073271751404, -8.576048851013184, -4.735994338989258, -57.41880416870117, -0.5805445313453674, 13.945869445800781, 
477, 3966537088, -119.550537109375, 1.8891575336456299, 101.86077117919922, 0.41161295771598816, -7.760923862457275, -5.9978742599487305, -61.791664123535156, 8.440250396728516, -0.47806763648986816, 
478, 3966553755, -121.38992309570312, 1.3868756294250488, 101.93555450439453, -0.19437041878700256, -7.530200004577637, -6.274932861328125, -110.32434844970703, 11.712873458862305, -27.859384536743164, 
479, 3966570422, -125.91857147216797, 0.483695924282074, 101.75595092773438, 0.5855402946472168, -4.891765594482422, -8.166913032531738, -271.3605651855469, 39.30904006958008, -38.75319290161133, 
480, 3966587089, -132.94590759277344, -0.6020786166191101, 101.42485809326172, 0.3152521550655365, -7.700161933898926, -5.884462356567383, -421.45367431640625, 57.056549072265625, -37.3255615234375, 
481, 3966603756, -139.5786895751953, -1.4980790615081787, 102.38790893554688, 0.11525554955005646, -6.696021556854248, -6.75367546081543, -396.699951171875, -0.7989108562469482, -78.55034637451172, 
482, 3966620423, -145.57603454589844, -1.0883963108062744, 103.42529296875, -2.44586443901062, -7.233644962310791, -7.5478410720825195, -358.2362976074219, -57.05503463745117, -34.093101501464844, 
483, 3966637090, -150.89085388183594, -1.2243030071258545, 104.14083099365234, 0.9249591827392578, -5.476571559906006, -8.975650787353516, -317.8354797363281, -15.353798866271973, -40.39912033081055, 
484, 3966653757, -154.39047241210938, -1.5261703729629517, 104.96865844726562, -1.0614395141601562, -5.098823547363281, -8.5441255569458, -208.60020446777344, -6.419948101043701, -52.025360107421875, 
485, 3966670424, -155.66030883789062, -1.7585077285766602, 105.30880737304688, -0.2923029661178589, -5.238101482391357, -8.738384246826172, -75.43061828613281, 4.343415260314941, -23.97402000427246, 
486, 3966687091, -155.493896484375, -2.0052073001861572, 105.33831024169922, -0.22950409352779388, -4.3854079246521, -8.791752815246582, 10.212943077087402, 13.067646980285645, -7.326035499572754, 
487, 3966703758, -154.97280883789062, -2.0822930335998535, 105.17964935302734, 0.3169716000556946, -4.011050224304199, -8.85836410522461, 31.093313217163086, 8.50844955444336, 7.10322904586792, 
488, 3966720425, -154.6924591064453, -2.071563482284546, 105.04336547851562, 0.4271186888217926, -3.986372709274292, -8.804533958435059, 16.692373275756836, 3.215082883834839, 8.073087692260742, 
489, 3966737092, -154.83921813964844, -1.988535761833191, 105.01319885253906, 0.42467960715293884, -3.9909610748291016, -8.787850379943848, -8.699676513671875, -3.412086248397827, 4.164466381072998, 
490, 3966753759, -155.2771759033203, -1.9719868898391724, 105.05709838867188, 0.45044806599617004, -4.120906352996826, -8.920456886291504, -26.01731300354004, -1.6886236667633057, -1.5646321773529053, 
491, 3966770426, -155.55152893066406, -1.9814188480377197, 105.10305786132812, 0.02175096422433853, -4.065575122833252, -8.938060760498047, -16.195232391357422, -0.3091840147972107, -2.335970163345337, 
492, 3966787093, -155.72653198242188, -2.0454578399658203, 105.25089263916016, 0.14086154103279114, -3.764362335205078, -9.039750099182129, -10.019438743591309, 0.16630977392196655, -9.256217956542969, 
493, 3966803760, -155.88192749023438, -2.0450778007507324, 105.47425842285156, 0.315044105052948, -4.15385627746582, -8.771860122680664, -8.67464542388916, -5.186729431152344, -11.802278518676758, 
494, 3966820427, -156.27479553222656, -2.0284221172332764, 105.71701049804688, 0.09721827507019043, -3.49672532081604, -9.040840148925781, -22.88549041748047, -6.492400169372559, -12.497030258178711, 
495, 3966837094, -157.1028594970703, -1.9213296175003052, 105.97460174560547, 0.15969088673591614, -3.3665173053741455, -9.066166877746582, -48.97934341430664, -11.689322471618652, -11.237869262695312, 
496, 3966853761, -158.6310272216797, -1.7013580799102783, 106.31029510498047, 0.4303455352783203, -3.036479949951172, -9.264667510986328, -90.87923431396484, -19.485557556152344, -13.268789291381836, 
497, 3966870428, -161.55055236816406, -1.8847004175186157, 107.02376556396484, 0.9443396925926208, -2.761159896850586, -9.366806983947754, -173.65286254882812, -3.902561902999878, -43.5732307434082, 
498, 3966887095, -166.18072509765625, -2.0530664920806885, 108.03275299072266, 0.8318644165992737, -1.8032337427139282, -9.40721321105957, -275.5426940917969, -6.786401271820068, -60.53117370605469, 
499, 3966903762, -173.12123107910156, -2.2878992557525635, 109.4239730834961, 1.1753027439117432, -1.765629768371582, -9.320276260375977, -413.0621032714844, -0.8004244565963745, -84.21976470947266, 
500, 3966920429, -177.88673400878906, -2.404762029647827, 111.21798706054688, -0.3001514971256256, -5.180291175842285, -10.13277530670166, -281.3193359375, -1.1185309886932373, -107.37559509277344, 
501, 3966937096, -178.06529235839844, -2.509079694747925, 111.91989135742188, -1.8175983428955078, -0.8552362322807312, -9.946098327636719, -8.7489595413208, 5.094815731048584, -41.846797943115234, 
502, 3966953763, -178.0703887939453, -2.510859727859497, 111.9199447631836, 0.2791408598423004, -0.19348712265491486, -9.71146297454834, -0.1484127938747406, 0.43993017077445984, 0.41454795002937317, 
503, 3966970430, -178.06692504882812, -2.507861614227295, 112.01353454589844, 0.35632067918777466, -0.7508640885353088, -9.771114349365234, 0.6106772422790527, -0.03602426499128342, -5.179580211639404, 
504, 3966987097, -178.0636749267578, -2.501814126968384, 111.8404769897461, 0.21641193330287933, -0.1278252750635147, -9.82137680053711, -0.10215628892183304, 0.3214586675167084, 10.802691459655762, 
505, 3967003764, -178.04920959472656, -2.491082191467285, 111.32098388671875, 0.6099942922592163, -0.31918442249298096, -9.785321235656738, -0.3329150676727295, 0.7462223172187805, 31.56440544128418, 
506, 3967020431, -178.02879333496094, -2.484989881515503, 111.10507202148438, 0.45165830850601196, 0.1939973533153534, -9.713793754577637, 0.8206506967544556, 0.4102964997291565, 13.369383811950684, 
507, 3967037098, -177.7937469482422, -2.381364583969116, 110.8911361694336, -0.7250518798828125, 1.1581544876098633, -9.975281715393066, 13.716792106628418, -5.412522315979004, 13.4657621383667, 
508, 3967053765, -177.88539123535156, -2.4084715843200684, 110.71739196777344, 0.5112199783325195, -1.4088391065597534, -9.539046287536621, -5.77014684677124, 2.353724718093872, 10.768102645874023, 
509, 3967070432, -177.8850860595703, -2.4097025394439697, 110.7179946899414, 0.23892620205879211, -0.2240462601184845, -9.810335159301758, 0.18115222454071045, 0.40838807821273804, 0.3833644986152649, 
510, 3967087099, -177.8848419189453, -2.410148859024048, 110.71915435791016, 0.25408613681793213, -0.22157785296440125, -9.784974098205566, 0.17951300740242004, 0.3602362275123596, 0.3521297872066498, 
511, 3967103766, -177.88270568847656, -2.4091084003448486, 110.71977996826172, 0.25434374809265137, -0.20368976891040802, -9.781856536865234, 0.29191431403160095, 0.2733066976070404, 0.3868989944458008, 
512, 3967120433, -177.88197326660156, -2.408222198486328, 110.71968841552734, 0.2508063018321991, -0.19860497117042542, -9.784682273864746, 0.20574042201042175, 0.2838975787162781, 0.4294033646583557, 
513, 3967137100, -177.88262939453125, -2.4073359966278076, 110.71910858154297, 0.26628440618515015, -0.20672981441020966, -9.774575233459473, 0.12192285060882568, 0.28537026047706604, 0.45885786414146423, 
514, 3967153767, -177.8819580078125, -2.4073779582977295, 110.72027587890625, 0.24716578423976898, -0.21086424589157104, -9.775924682617188, 0.20746926963329315, 0.3377482295036316, 0.3530389964580536, 
515, 3967170434, -177.88363647460938, -2.4067752361297607, 110.72008514404297, 0.254368394613266, -0.20894385874271393, -9.772412300109863, 0.0625782236456871, 0.30191609263420105, 0.43533262610435486, 
516, 3967187101, -177.8831329345703, -2.4049577713012695, 110.71937561035156, 0.25819501280784607, -0.2014656364917755, -9.770853042602539, 0.19342070817947388, 0.23058471083641052, 0.46807846426963806, 
517, 3967203768, -177.8836212158203, -2.4047691822052, 110.7208251953125, 0.2579875886440277, -0.20198418200016022, -9.766228675842285, 0.13881441950798035, 0.3244168162345886, 0.33663409948349, 
518, 3967220435, -177.8833465576172, -2.4039642810821533, 110.72200012207031, 0.2441333681344986, -0.20517773926258087, -9.781437873840332, 0.18455870449543, 0.28826451301574707, 0.35403791069984436, 
519, 3967237102, -177.8837890625, -2.4031074047088623, 110.72239685058594, 0.23617614805698395, -0.20110833644866943, -9.784167289733887, 0.140095055103302, 0.2869454622268677, 0.4011909067630768, 
520, 3967253769, -177.8838348388672, -2.4016921520233154, 110.721923828125, 0.23451314866542816, -0.20231348276138306, -9.772157669067383, 0.1630440503358841, 0.25599250197410583, 0.45237788558006287, 
521, 3967270436, -177.88404846191406, -2.400473117828369, 110.72110748291016, 0.2461467683315277, -0.21628901362419128, -9.794774055480957, 0.15218426287174225, 0.26979777216911316, 0.4744304418563843, 
522, 3967287103, -177.88369750976562, -2.398346185684204, 110.72132873535156, 0.260458767414093, -0.20810307562351227, -9.764101028442383, 0.1886311173439026, 0.21223321557044983, 0.41342097520828247, 
523, 3967303770, -177.88381958007812, -2.3977131843566895, 110.7203598022461, 0.2585311830043793, -0.21496224403381348, -9.781230926513672, 0.15728117525577545, 0.30546340346336365, 0.48283135890960693, 
524, 3967320437, -177.8837127685547, -2.3965044021606445, 110.7202377319336, 0.26408860087394714, -0.20456263422966003, -9.770638465881348, 0.17430081963539124, 0.2693239152431488, 0.43237435817718506, 
525, 3967337104, -177.8822479248047, -2.396496534347534, 110.71931457519531, 0.2527448832988739, -0.1954289972782135, -9.778974533081055, 0.2541356086730957, 0.3434599041938782, 0.47723498940467834, 
526, 3967353771, -177.882568359375, -2.396336555480957, 110.71888732910156, 0.2506706714630127, -0.20283889770507812, -9.776839256286621, 0.15004558861255646, 0.3333044648170471, 0.44879209995269775, 
527, 3967370438, -177.88131713867188, -2.3949832916259766, 110.71885681152344, 0.2409326583147049, -0.19793234765529633, -9.77956771850586, 0.24381372332572937, 0.26092299818992615, 0.4261120557785034, 
528, 3967387105, -177.88136291503906, -2.3929286003112793, 110.71888732910156, 0.25767263770103455, -0.21278098225593567, -9.77839183807373, 0.16792327165603638, 0.21969932317733765, 0.42584311962127686, 
529, 3967403772, -177.88156127929688, -2.391554355621338, 110.718505859375, 0.24999119341373444, -0.2040870040655136, -9.783125877380371, 0.1578318476676941, 0.2622676491737366, 0.44739624857902527, 
530, 3967420439, -177.88279724121094, -2.3899264335632324, 110.71784973144531, 0.25288447737693787, -0.19896914064884186, -9.786981582641602, 0.09524723142385483, 0.24738667905330658, 0.46617040038108826, 
531, 3967437106, -177.8826904296875, -2.388519048690796, 110.71817016601562, 0.2626044750213623, -0.20326447486877441, -9.76497745513916, 0.17924407124519348, 0.25927093625068665, 0.4054042100906372, 
532, 3967453773, -177.882568359375, -2.386953830718994, 110.71837615966797, 0.26572293043136597, -0.1941487193107605, -9.786373138427734, 0.17961545288562775, 0.2503833472728729, 0.4129215478897095, 
533, 3967470440, -177.88150024414062, -2.383596658706665, 110.71810913085938, 0.2499801516532898, -0.22331641614437103, -9.771403312683105, 0.23601463437080383, 0.14350154995918274, 0.44533443450927734, 
534, 3967487107, -177.88092041015625, -2.381467580795288, 110.71995544433594, 0.25517311692237854, -0.2060968279838562, -9.771127700805664, 0.21296317875385284, 0.21341140568256378, 0.31723248958587646, 
535, 3967503774, -177.8787078857422, -2.3784000873565674, 110.72010803222656, 0.2387833595275879, -0.20290327072143555, -9.775555610656738, 0.3054250478744507, 0.16185306012630463, 0.4206950068473816, 
536, 3967520441, -177.87818908691406, -2.376163959503174, 110.7204360961914, 0.2409326583147049, -0.21179014444351196, -9.771617889404297, 0.20672649145126343, 0.21050436794757843, 0.4083624482154846, 
537, 3967537108, -177.87672424316406, -2.3737900257110596, 110.72127532958984, 0.24305692315101624, -0.20274949073791504, -9.790257453918457, 0.2648288607597351, 0.20278212428092957, 0.37687164545059204, 
538, 3967553775, -177.87774658203125, -2.3729379177093506, 110.72058868408203, 0.24449098110198975, -0.21824520826339722, -9.764101028442383, 0.1114344447851181, 0.2965758740901947, 0.46519702672958374, 
539, 3967570442, -177.8767852783203, -2.372041702270508, 110.72101593017578, 0.24877198040485382, -0.2186668962240219, -9.77602767944336, 0.23385034501552582, 0.29282358288764954, 0.39942362904548645, 
540, 3967587109, -177.8757781982422, -2.3701517581939697, 110.72028350830078, 0.2561100721359253, -0.20943699777126312, -9.77184009552002, 0.2349644899368286, 0.23575849831104279, 0.4693206548690796, 
541, 3967603776, -177.87342834472656, -2.3674004077911377, 110.71968078613281, 0.2558096945285797, -0.2069944590330124, -9.757245063781738, 0.31538835167884827, 0.18432818353176117, 0.4645567238330841, 
542, 3967620443, -177.8697052001953, -2.36332631111145, 110.71905517578125, 0.24885039031505585, -0.20785275101661682, -9.762602806091309, 0.399372398853302, 0.1053130105137825, 0.46929505467414856, 
543, 3967637110, -177.86512756347656, -2.360995292663574, 110.7192153930664, 0.26003319025039673, -0.2147226333618164, -9.79826831817627, 0.4519168436527252, 0.20857061445713043, 0.41869717836380005, 
544, 3967653777, -177.86288452148438, -2.3593549728393555, 110.72010803222656, 0.25410741567611694, -0.20126178860664368, -9.778473854064941, 0.31403085589408875, 0.24838554859161377, 0.37241503596305847, 
545, 3967670444, -177.86376953125, -2.3585681915283203, 110.72025299072266, 0.2452060580253601, -0.20976994931697845, -9.78719711303711, 0.1251116245985031, 0.30221062898635864, 0.4165073037147522, 
546, 3967687111, -177.8645477294922, -2.3568592071533203, 110.7205810546875, 0.25001996755599976, -0.20227356255054474, -9.782005310058594, 0.13310278952121735, 0.24579866230487823, 0.4067232310771942, 
547, 3967703778, -177.8644256591797, -2.35687518119812, 110.72103118896484, 0.23974893987178802, -0.21043118834495544, -9.764147758483887, 0.1874273270368576, 0.35059303045272827, 0.395504891872406, 
548, 3967720445, -177.86468505859375, -2.355597734451294, 110.7211685180664, 0.24252764880657196, -0.20411919057369232, -9.783609390258789, 0.16452957689762115, 0.273601233959198, 0.41585418581962585, 
549, 3967737112, -177.86473083496094, -2.353938579559326, 110.72130584716797, 0.23100154101848602, -0.21908918023109436, -9.77099895477295, 0.1775408238172531, 0.25042176246643066, 0.41776230931282043, 
550, 3967753779, -177.86558532714844, -2.3529279232025146, 110.72087097167969, 0.2538036108016968, -0.22154569625854492, -9.777629852294922, 0.12751922011375427, 0.29224729537963867, 0.45111003518104553, 
551, 3967770446, -177.86526489257812, -2.351797580718994, 110.72081756591797, 0.24217361211776733, -0.21331718564033508, -9.761232376098633, 0.19993913173675537, 0.28357741236686707, 0.42849403619766235, 
552, 3967787113, -177.86607360839844, -2.3502540588378906, 110.7203369140625, 0.24358978867530823, -0.22233638167381287, -9.767333984375, 0.13137394189834595, 0.2604747712612152, 0.4549008011817932, 
553, 3967803780, -177.86502075195312, -2.3477020263671875, 110.71928405761719, 0.23392687737941742, -0.20997343957424164, -9.770352363586426, 0.24239221215248108, 0.20201376080513, 0.49111706018447876, 
554, 3967820447, -177.86476135253906, -2.3458735942840576, 110.71871185302734, 0.25733646750450134, -0.20962682366371155, -9.771589279174805, 0.19663511216640472, 0.24377529323101044, 0.4604075253009796, 
555, 3967837114, -177.8644256591797, -2.344299077987671, 110.7183837890625, 0.248871847987175, -0.20211650431156158, -9.779961585998535, 0.2023211121559143, 0.25937342643737793, 0.44614124298095703, 
556, 3967853781, -177.8648681640625, -2.341994285583496, 110.71942901611328, 0.2590886950492859, -0.20650850236415863, -9.780844688415527, 0.15893320739269257, 0.21342423558235168, 0.3652307391166687, 
557, 3967870448, -177.8651885986328, -2.3406779766082764, 110.71966552734375, 0.2601476311683655, -0.20244194567203522, -9.783730506896973, 0.16511866450309753, 0.2743568420410156, 0.4108853340148926, 
558, 3967887115, -177.86618041992188, -2.3388240337371826, 110.71893310546875, 0.2546795904636383, -0.19418448209762573, -9.780258178710938, 0.12301140278577805, 0.24398016929626465, 0.4699738621711731, 
559, 3967903782, -177.865966796875, -2.337291955947876, 110.71900939941406, 0.24494874477386475, -0.21087820827960968, -9.773109436035156, 0.19680155813694, 0.2627926766872406, 0.42065656185150146, 
560, 3967920449, -177.86709594726562, -2.335360288619995, 110.71943664550781, 0.25032007694244385, -0.20303943753242493, -9.780766487121582, 0.11843952536582947, 0.23767943680286407, 0.4003584682941437, 
561, 3967937116, -177.86526489257812, -2.3333234786987305, 110.71965789794922, 0.26664915680885315, -0.21498727798461914, -9.78329086303711, 0.29652461409568787, 0.23255689442157745, 0.41307520866394043, 
562, 3967953783, -177.86546325683594, -2.332604169845581, 110.71893310546875, 0.230693981051445, -0.21596358716487885, -9.772686958312988, 0.1717139482498169, 0.31336498260498047, 0.4676174223423004, 
563, 3967970450, -177.865966796875, -2.331875801086426, 110.71863555908203, 0.2508032023906708, -0.22459618747234344, -9.763467788696289, 0.15515531599521637, 0.31301915645599365, 0.44227367639541626, 
564, 3967987117, -177.86605834960938, -2.330880880355835, 110.7193832397461, 0.2542361617088318, -0.2152411937713623, -9.778470039367676, 0.18370068073272705, 0.29433473944664, 0.3800220191478729, 
565, 3968003784, -177.86668395996094, -2.3289356231689453, 110.71940612792969, 0.24822433292865753, -0.2119191437959671, -9.782150268554688, 0.14923882484436035, 0.2402791529893875, 0.4254973828792572, 
566, 3968020451, -177.86700439453125, -2.326733350753784, 110.7192611694336, 0.2560170888900757, -0.20878255367279053, -9.775931358337402, 0.1675390601158142, 0.22482186555862427, 0.4346923232078552, 
567, 3968037118, -177.86669921875, -2.3253695964813232, 110.7203140258789, 0.2365303486585617, -0.20001369714736938, -9.77596664428711, 0.20999211072921753, 0.2730249762535095, 0.3629639446735382, 
568, 3968053785, -177.8671875, -2.324681282043457, 110.72162628173828, 0.23338328301906586, -0.1982470452785492, -9.77688980102539, 0.16218601167201996, 0.3132881224155426, 0.34454840421676636, 
569, 3968070452, -177.86695861816406, -2.3230106830596924, 110.72132110595703, 0.24577485024929047, -0.21524834632873535, -9.77825927734375, 0.20178323984146118, 0.25765734910964966, 0.4437336027622223, 
570, 3968087119, -177.86666870117188, -2.3220455646514893, 110.7231216430664, 0.24513113498687744, -0.21147187054157257, -9.781105995178223, 0.2106708437204361, 0.2960507571697235, 0.31739893555641174, 
571, 3968103786, -177.86761474609375, -2.3198254108428955, 110.72342681884766, 0.2412722408771515, -0.21056735515594482, -9.778313636779785, 0.13389678299427032, 0.2245401293039322, 0.4070305824279785, 
572, 3968120453, -177.86854553222656, -2.318767786026001, 110.72393035888672, 0.23995260894298553, -0.22029827535152435, -9.777026176452637, 0.13562564551830292, 0.2941298484802246, 0.3943011164665222, 
573, 3968137120, -177.86941528320312, -2.3175559043884277, 110.72392272949219, 0.25651419162750244, -0.21096403896808624, -9.773874282836914, 0.1389681100845337, 0.2866381108760834, 0.4264066517353058, 
574, 3968153787, -177.87049865722656, -2.3156771659851074, 110.72392272949219, 0.24726970493793488, -0.21339228749275208, -9.780061721801758, 0.12570074200630188, 0.2466951161623001, 0.42639386653900146, 
575, 3968170454, -177.87228393554688, -2.313991069793701, 110.72311401367188, 0.2328575849533081, -0.21732254326343536, -9.765063285827637, 0.08299155533313751, 0.2604619562625885, 0.47482743859291077, 
576, 3968187121, -177.8734130859375, -2.312194585800171, 110.72322845458984, 0.23749950528144836, -0.2022094875574112, -9.78212833404541, 0.1240871325135231, 0.25222745537757874, 0.4197217524051666, 
577, 3968203788, -177.87327575683594, -2.3118064403533936, 110.723388671875, 0.2481101155281067, -0.20861805975437164, -9.768267631530762, 0.20086118578910828, 0.3366597592830658, 0.4136386811733246, 
578, 3968220455, -177.87539672851562, -2.30966854095459, 110.72393035888672, 0.23940220475196838, -0.20696894824504852, -9.785600662231445, 0.06645854562520981, 0.23126345872879028, 0.39339184761047363, 
579, 3968237122, -177.87583923339844, -2.3075478076934814, 110.7236099243164, 0.2470589280128479, -0.20050694048404694, -9.769414901733398, 0.16648894548416138, 0.23400402069091797, 0.4468071162700653, 
580, 3968253789, -177.8759765625, -2.3060920238494873, 110.72408294677734, 0.250563383102417, -0.21378567814826965, -9.773545265197754, 0.1854807585477829, 0.27334511280059814, 0.39759230613708496, 
581, 3968270456, -177.8760986328125, -2.3045308589935303, 110.72344207763672, 0.24601086974143982, -0.21887819468975067, -9.785197257995605, 0.18554480373859406, 0.26878610253334045, 0.46494096517562866, 
582, 3968287123, -177.87664794921875, -2.3036534786224365, 110.72274780273438, 0.2312733232975006, -0.19735300540924072, -9.77295207977295, 0.15956072509288788, 0.31118786334991455, 0.46604228019714355, 
583, 3968303790, -177.8763885498047, -2.3016443252563477, 110.723388671875, 0.2548941671848297, -0.22696757316589355, -9.767562866210938, 0.21175938844680786, 0.23980529606342316, 0.3873344361782074, 
584, 3968320457, -177.87692260742188, -2.2996931076049805, 110.72425079345703, 0.24079301953315735, -0.20830002427101135, -9.784539222717285, 0.16546443104743958, 0.24337826669216156, 0.3752964437007904, 
585, 3968337124, -177.8759765625, -2.298351287841797, 110.72376251220703, 0.24552808701992035, -0.2083820253610611, -9.756175994873047, 0.25069066882133484, 0.28365424275398254, 0.45440128445625305, 
586, 3968353791, -177.8773651123047, -2.2968029975891113, 110.72299194335938, 0.24595382809638977, -0.20145098865032196, -9.79855728149414, 0.11167777329683304, 0.2715394198894501, 0.47194597125053406, 
587, 3968370458, -177.8771514892578, -2.2933154106140137, 110.72320556640625, 0.24114032089710236, -0.19446329772472382, -9.759337425231934, 0.20956949889659882, 0.1532599776983261, 0.4167889952659607, 
588, 3968387125, -177.87826538085938, -2.2921433448791504, 110.72219848632812, 0.2604410648345947, -0.2164352685213089, -9.78441047668457, 0.12750642001628876, 0.2962556779384613, 0.4861482083797455, 
589, 3968403792, -177.87879943847656, -2.291184663772583, 110.72177124023438, 0.25037384033203125, -0.21291308104991913, -9.751412391662598, 0.1648753434419632, 0.3070386052131653, 0.4496373236179352, 
590, 3968420459, -177.88101196289062, -2.290982723236084, 110.72212982177734, 0.2466188371181488, -0.20980893075466156, -9.794520378112793, 0.0653315857052803, 0.3512333333492279, 0.40188243985176086, 
591, 3968437126, -177.88136291503906, -2.2894093990325928, 110.7223892211914, 0.2529594600200653, -0.21284155547618866, -9.756887435913086, 0.1772206723690033, 0.26908063888549805, 0.4091949164867401, 
592, 3968453793, -177.8813018798828, -2.2874932289123535, 110.7237548828125, 0.24662618339061737, -0.2335868924856186, -9.791773796081543, 0.20575320720672607, 0.24615727365016937, 0.3454320728778839, 
593, 3968470460, -177.88356018066406, -2.2875239849090576, 110.7238540649414, 0.24471262097358704, -0.21709409356117249, -9.743781089782715, 0.06296241283416748, 0.36699792742729187, 0.4163792133331299, 
594, 3968487127, -177.88426208496094, -2.28666353225708, 110.72403717041016, 0.25592750310897827, -0.21420803666114807, -9.784285545349121, 0.1578446626663208, 0.3126477897167206, 0.41427895426750183, 
595, 3968503794, -177.88548278808594, -2.285034418106079, 110.7241439819336, 0.25034165382385254, -0.22061264514923096, -9.75464916229248, 0.1266355812549591, 0.2671724855899811, 0.4210023283958435, 
596, 3968520461, -177.88677978515625, -2.283367156982422, 110.72400665283203, 0.24489867687225342, -0.2081245332956314, -9.791666030883789, 0.12128252536058426, 0.265546053647995, 0.4334372878074646, 
597, 3968537128, -177.88832092285156, -2.2817697525024414, 110.72412109375, 0.23519285023212433, -0.1903221756219864, -9.772955894470215, 0.10801515728235245, 0.2696441113948822, 0.418645977973938, 
598, 3968553795, -177.88853454589844, -2.2794437408447266, 110.72454071044922, 0.24498115479946136, -0.21220113337039948, -9.779573440551758, 0.18815729022026062, 0.22593601047992706, 0.4041748344898224, 
599, 3968570462, -177.8896026611328, -2.277946949005127, 110.72566986083984, 0.2485070675611496, -0.21194034814834595, -9.763110160827637, 0.13957001268863678, 0.2739470601081848, 0.35763654112815857, 
600, 3968587129, -177.89169311523438, -2.2755205631256104, 110.72484588623047, 0.23834002017974854, -0.21552343666553497, -9.774765014648438, 0.07432164996862411, 0.22255514562129974, 0.4771069288253784, 
